subj,index,phase,var,block,trial,stim,x1,x2,value,resp,corr,offset,rt,x1_pos,x1_col
223,1,psych,loc,1,1,21,2,1,4,4,TRUE,2000,,left,green
223,2,psych,loc,1,2,11,1,1,2,0,FALSE,1663.4,,left,green
223,3,psych,loc,1,3,31,3,1,2,2,TRUE,1663.4,,left,green
223,4,psych,loc,1,4,42,4,2,2,2,TRUE,1663.4,,left,green
223,5,psych,loc,1,5,24,2,4,3,3,TRUE,1663.4,,left,green
223,6,psych,loc,1,6,33,3,3,2,2,TRUE,1326.8,,left,green
223,7,psych,loc,1,7,32,3,2,4,4,TRUE,1326.8,,left,green
223,8,psych,loc,1,8,13,1,3,1,1,TRUE,1326.8,,left,green
223,9,psych,loc,1,9,23,2,3,4,4,TRUE,1326.8,,left,green
223,10,psych,loc,1,10,41,4,1,3,3,TRUE,990.2,,left,green
223,11,psych,loc,1,11,43,4,3,1,1,TRUE,990.2,,left,green
223,12,psych,loc,1,12,44,4,4,3,3,TRUE,990.2,,left,green
223,13,psych,loc,1,13,22,2,2,4,4,TRUE,990.2,,left,green
223,14,psych,loc,1,14,14,1,4,1,1,TRUE,653.6,,left,green
223,15,psych,loc,1,15,34,3,4,1,1,TRUE,653.6,,left,green
223,16,psych,loc,1,16,12,1,2,1,1,TRUE,653.6,,left,green
223,17,psych,loc,2,17,12,1,2,4,4,TRUE,653.6,,left,green
223,18,psych,loc,2,18,34,3,4,2,2,TRUE,317,,left,green
223,19,psych,loc,2,19,14,1,4,1,1,TRUE,317,,left,green
223,20,psych,loc,2,20,21,2,1,2,2,TRUE,317,,left,green
223,21,psych,loc,2,21,43,4,3,2,2,TRUE,317,,left,green
223,22,psych,loc,2,22,33,3,3,1,2,FALSE,,,left,green
223,23,psych,loc,2,23,23,2,3,4,4,TRUE,380.4,,left,green
223,24,psych,loc,2,24,22,2,2,4,4,TRUE,380.4,,left,green
223,25,psych,loc,2,25,41,4,1,1,1,TRUE,380.4,,left,green
223,26,psych,loc,2,26,42,4,2,1,1,TRUE,380.4,,left,green
223,27,psych,loc,2,27,44,4,4,1,4,FALSE,43.8,,left,green
223,28,psych,loc,2,28,32,3,2,3,3,TRUE,443.8,,left,green
223,29,psych,loc,2,29,11,1,1,1,1,TRUE,443.8,,left,green
223,30,psych,loc,2,30,13,1,3,1,1,TRUE,443.8,,left,green
223,31,psych,loc,2,31,31,3,1,1,1,TRUE,443.8,,left,green
223,32,psych,loc,2,32,24,2,4,1,1,TRUE,107.2,,left,green
223,33,psych,loc,3,33,43,4,3,3,3,TRUE,107.2,,left,green
223,34,psych,loc,3,34,31,3,1,4,4,TRUE,107.2,,left,green
223,35,psych,loc,3,35,12,1,2,4,4,TRUE,107.2,,left,green
223,36,psych,loc,3,36,14,1,4,3,3,TRUE,,,left,green
223,37,psych,loc,3,37,21,2,1,1,1,TRUE,,,left,green
223,38,psych,loc,3,38,22,2,2,4,4,TRUE,,,left,green
223,39,psych,loc,3,39,42,4,2,2,4,FALSE,,,left,green
223,40,psych,loc,3,40,24,2,4,1,1,TRUE,170.6,,left,green
223,41,psych,loc,3,41,11,1,1,3,2,FALSE,,,left,green
223,42,psych,loc,3,42,32,3,2,3,3,TRUE,234,,left,green
223,43,psych,loc,3,43,34,3,4,2,2,TRUE,234,,left,green
223,44,psych,loc,3,44,33,3,3,3,3,TRUE,234,,left,green
223,45,psych,loc,3,45,41,4,1,4,4,TRUE,234,,left,green
223,46,psych,loc,3,46,13,1,3,3,3,TRUE,,,left,green
223,47,psych,loc,3,47,44,4,4,4,4,TRUE,,,left,green
223,48,psych,loc,3,48,23,2,3,4,4,TRUE,,,left,green
223,49,train,loc,1,1,23,2,3,0,3,FALSE,,753,left,green
223,50,train,loc,1,2,32,3,2,3,3,TRUE,,4243,left,green
223,51,train,loc,1,3,12,1,2,0,2,FALSE,,3931,left,green
223,52,train,loc,1,4,41,4,1,0,1,FALSE,,5532,left,green
223,53,train,loc,1,5,14,1,4,1,4,FALSE,,2650,left,green
223,54,train,loc,1,6,43,4,3,4,4,TRUE,,3384,left,green
223,55,train,loc,1,7,34,3,4,0,0,TRUE,,8177,left,green
223,56,train,loc,1,8,21,2,1,2,1,FALSE,,3871,left,green
223,57,train,loc,2,9,41,4,1,0,0,TRUE,,4318,left,green
223,58,train,loc,2,10,21,2,1,2,0,FALSE,,3748,left,green
223,59,train,loc,2,11,43,4,3,4,3,FALSE,,3265,left,green
223,60,train,loc,2,12,34,3,4,0,1,FALSE,,5140,left,green
223,61,train,loc,2,13,32,3,2,3,0,FALSE,,2040,left,green
223,62,train,loc,2,14,23,2,3,0,0,TRUE,,3663,left,green
223,63,train,loc,2,15,14,1,4,1,2,FALSE,,2628,left,green
223,64,train,loc,2,16,12,1,2,0,0,TRUE,,3516,left,green
223,65,train,loc,3,17,14,1,4,1,0,FALSE,,3554,left,green
223,66,train,loc,3,18,34,3,4,0,0,TRUE,,4991,left,green
223,67,train,loc,3,19,21,2,1,2,2,TRUE,,1622,left,green
223,68,train,loc,3,20,12,1,2,0,0,TRUE,,3104,left,green
223,69,train,loc,3,21,32,3,2,3,1,FALSE,,2480,left,green
223,70,train,loc,3,22,41,4,1,0,1,FALSE,,1876,left,green
223,71,train,loc,3,23,43,4,3,4,3,FALSE,,7342,left,green
223,72,train,loc,3,24,23,2,3,0,3,FALSE,,2773,left,green
223,73,train,loc,4,25,34,3,4,0,0,TRUE,,4070,left,green
223,74,train,loc,4,26,32,3,2,3,1,FALSE,,5021,left,green
223,75,train,loc,4,27,23,2,3,0,3,FALSE,,4241,left,green
223,76,train,loc,4,28,12,1,2,0,2,FALSE,,1528,left,green
223,77,train,loc,4,29,21,2,1,2,2,TRUE,,1609,left,green
223,78,train,loc,4,30,41,4,1,0,0,TRUE,,4077,left,green
223,79,train,loc,4,31,14,1,4,1,1,TRUE,,4923,left,green
223,80,train,loc,4,32,43,4,3,4,0,FALSE,,4297,left,green
223,81,train,loc,5,33,14,1,4,1,1,TRUE,,2868,left,green
223,82,train,loc,5,34,21,2,1,2,2,TRUE,,1251,left,green
223,83,train,loc,5,35,41,4,1,0,3,FALSE,,4746,left,green
223,84,train,loc,5,36,34,3,4,0,0,TRUE,,1587,left,green
223,85,train,loc,5,37,32,3,2,3,1,FALSE,,2367,left,green
223,86,train,loc,5,38,23,2,3,0,0,TRUE,,6046,left,green
223,87,train,loc,5,39,43,4,3,4,4,TRUE,,1630,left,green
223,88,train,loc,5,40,12,1,2,0,2,FALSE,,3353,left,green
223,89,train,loc,6,41,34,3,4,0,4,FALSE,,5776,left,green
223,90,train,loc,6,42,43,4,3,4,4,TRUE,,2511,left,green
223,91,train,loc,6,43,21,2,1,2,2,TRUE,,3309,left,green
223,92,train,loc,6,44,14,1,4,1,1,TRUE,,1717,left,green
223,93,train,loc,6,45,41,4,1,0,3,FALSE,,2345,left,green
223,94,train,loc,6,46,12,1,2,0,0,TRUE,,2880,left,green
223,95,train,loc,6,47,32,3,2,3,3,TRUE,,1810,left,green
223,96,train,loc,6,48,23,2,3,0,0,TRUE,,1527,left,green
223,97,train,loc,7,49,23,2,3,0,3,FALSE,,2183,left,green
223,98,train,loc,7,50,14,1,4,1,2,FALSE,,3183,left,green
223,99,train,loc,7,51,43,4,3,4,4,TRUE,,1824,left,green
223,100,train,loc,7,52,41,4,1,0,1,FALSE,,2650,left,green
223,101,train,loc,7,53,32,3,2,3,1,FALSE,,10358,left,green
223,102,train,loc,7,54,21,2,1,2,0,FALSE,,1782,left,green
223,103,train,loc,7,55,34,3,4,0,4,FALSE,,2325,left,green
223,104,train,loc,7,56,12,1,2,0,2,FALSE,,4191,left,green
223,105,train,loc,8,57,14,1,4,1,2,FALSE,,2784,left,green
223,106,train,loc,8,58,41,4,1,0,2,FALSE,,2414,left,green
223,107,train,loc,8,59,23,2,3,0,1,FALSE,,3932,left,green
223,108,train,loc,8,60,43,4,3,4,4,TRUE,,4174,left,green
223,109,train,loc,8,61,12,1,2,0,2,FALSE,,3283,left,green
223,110,train,loc,8,62,34,3,4,0,3,FALSE,,2545,left,green
223,111,train,loc,8,63,32,3,2,3,1,FALSE,,2320,left,green
223,112,train,loc,8,64,21,2,1,2,2,TRUE,,3122,left,green
223,113,train,loc,9,65,34,3,4,0,3,FALSE,,3445,left,green
223,114,train,loc,9,66,12,1,2,0,0,TRUE,,3440,left,green
223,115,train,loc,9,67,43,4,3,4,4,TRUE,,2035,left,green
223,116,train,loc,9,68,41,4,1,0,0,TRUE,,4472,left,green
223,117,train,loc,9,69,14,1,4,1,1,TRUE,,1888,left,green
223,118,train,loc,9,70,21,2,1,2,2,TRUE,,1731,left,green
223,119,train,loc,9,71,23,2,3,0,0,TRUE,,4003,left,green
223,120,train,loc,9,72,32,3,2,3,0,FALSE,,6436,left,green
223,121,train,loc,10,73,43,4,3,4,4,TRUE,,2728,left,green
223,122,train,loc,10,74,14,1,4,1,0,FALSE,,4175,left,green
223,123,train,loc,10,75,23,2,3,0,3,FALSE,,3185,left,green
223,124,train,loc,10,76,32,3,2,3,3,TRUE,,1855,left,green
223,125,train,loc,10,77,41,4,1,0,0,TRUE,,2790,left,green
223,126,train,loc,10,78,21,2,1,2,2,TRUE,,1268,left,green
223,127,train,loc,10,79,12,1,2,0,0,TRUE,,1012,left,green
223,128,train,loc,10,80,34,3,4,0,4,FALSE,,2564,left,green
223,129,train,loc,11,81,43,4,3,4,4,TRUE,,1872,left,green
223,130,train,loc,11,82,12,1,2,0,2,FALSE,,2213,left,green
223,131,train,loc,11,83,21,2,1,2,2,TRUE,,1195,left,green
223,132,train,loc,11,84,23,2,3,0,1,FALSE,,1187,left,green
223,133,train,loc,11,85,41,4,1,0,0,TRUE,,1894,left,green
223,134,train,loc,11,86,32,3,2,3,1,FALSE,,5435,left,green
223,135,train,loc,11,87,14,1,4,1,1,TRUE,,1614,left,green
223,136,train,loc,11,88,34,3,4,0,0,TRUE,,3701,left,green
223,137,train,loc,12,89,32,3,2,3,1,FALSE,,3434,left,green
223,138,train,loc,12,90,14,1,4,1,1,TRUE,,1764,left,green
223,139,train,loc,12,91,41,4,1,0,0,TRUE,,2512,left,green
223,140,train,loc,12,92,21,2,1,2,2,TRUE,,1322,left,green
223,141,train,loc,12,93,23,2,3,0,0,TRUE,,1974,left,green
223,142,train,loc,12,94,34,3,4,0,4,FALSE,,5467,left,green
223,143,train,loc,12,95,12,1,2,0,0,TRUE,,2228,left,green
223,144,train,loc,12,96,43,4,3,4,4,TRUE,,2102,left,green
223,145,train,loc,13,97,23,2,3,0,0,TRUE,,3624,left,green
223,146,train,loc,13,98,12,1,2,0,0,TRUE,,2790,left,green
223,147,train,loc,13,99,21,2,1,2,2,TRUE,,1252,left,green
223,148,train,loc,13,100,14,1,4,1,1,TRUE,,1693,left,green
223,149,train,loc,13,101,34,3,4,0,4,FALSE,,2012,left,green
223,150,train,loc,13,102,32,3,2,3,3,TRUE,,2711,left,green
223,151,train,loc,13,103,43,4,3,4,4,TRUE,,2335,left,green
223,152,train,loc,13,104,41,4,1,0,0,TRUE,,4646,left,green
223,153,train,loc,14,105,14,1,4,1,1,TRUE,,2002,left,green
223,154,train,loc,14,106,12,1,2,0,0,TRUE,,2628,left,green
223,155,train,loc,14,107,41,4,1,0,0,TRUE,,4501,left,green
223,156,train,loc,14,108,21,2,1,2,2,TRUE,,1152,left,green
223,157,train,loc,14,109,23,2,3,0,1,FALSE,,4563,left,green
223,158,train,loc,14,110,32,3,2,3,1,FALSE,,1623,left,green
223,159,train,loc,14,111,43,4,3,4,4,TRUE,,1653,left,green
223,160,train,loc,14,112,34,3,4,0,0,TRUE,,2050,left,green
223,161,train,loc,15,113,34,3,4,0,4,FALSE,,2243,left,green
223,162,train,loc,15,114,41,4,1,0,0,TRUE,,2843,left,green
223,163,train,loc,15,115,32,3,2,3,3,TRUE,,2213,left,green
223,164,train,loc,15,116,12,1,2,0,0,TRUE,,5093,left,green
223,165,train,loc,15,117,21,2,1,2,2,TRUE,,1491,left,green
223,166,train,loc,15,118,23,2,3,0,1,FALSE,,2541,left,green
223,167,train,loc,15,119,14,1,4,1,1,TRUE,,1187,left,green
223,168,train,loc,15,120,43,4,3,4,4,TRUE,,2008,left,green
223,169,train,crit,1,1,43,4,3,22,19,FALSE,,1717,left,green
223,170,train,crit,1,2,32,3,2,12,-1,FALSE,,-1,left,green
223,171,train,crit,1,3,14,1,4,9,13,FALSE,,1145,left,green
223,172,train,crit,1,4,21,2,1,5,21,FALSE,,1000,left,green
223,173,train,crit,2,5,32,3,2,12,16,FALSE,,1231,left,green
223,174,train,crit,2,6,21,2,1,5,22,FALSE,,1754,left,green
223,175,train,crit,2,7,14,1,4,9,9,TRUE,,1550,left,green
223,176,train,crit,2,8,43,4,3,22,22,TRUE,,1205,left,green
223,177,train,crit,3,9,32,3,2,12,16,FALSE,,955,left,green
223,178,train,crit,3,10,43,4,3,22,22,TRUE,,732,left,green
223,179,train,crit,3,11,14,1,4,9,9,TRUE,,1317,left,green
223,180,train,crit,3,12,21,2,1,5,5,TRUE,,1267,left,green
223,181,train,crit,4,13,21,2,1,5,5,TRUE,,1120,left,green
223,182,train,crit,4,14,14,1,4,9,9,TRUE,,931,left,green
223,183,train,crit,4,15,43,4,3,22,22,TRUE,,994,left,green
223,184,train,crit,4,16,32,3,2,12,12,TRUE,,1423,left,green
223,185,train,crit,5,17,32,3,2,12,12,TRUE,,1101,left,green
223,186,train,crit,5,18,14,1,4,9,9,TRUE,,1022,left,green
223,187,train,crit,5,19,21,2,1,5,5,TRUE,,1340,left,green
223,188,train,crit,5,20,43,4,3,22,22,TRUE,,1004,left,green
223,189,train,crit,6,21,21,2,1,5,9,FALSE,,1504,left,green
223,190,train,crit,6,22,43,4,3,22,22,TRUE,,895,left,green
223,191,train,crit,6,23,14,1,4,9,9,TRUE,,1003,left,green
223,192,train,crit,6,24,32,3,2,12,12,TRUE,,1074,left,green
223,193,train,crit,7,25,32,3,2,12,12,TRUE,,956,left,green
223,194,train,crit,7,26,14,1,4,9,9,TRUE,,900,left,green
223,195,train,crit,7,27,43,4,3,22,22,TRUE,,1004,left,green
223,196,train,crit,7,28,21,2,1,5,5,TRUE,,1146,left,green
223,197,test,crit,1,1,41,4,1,9,-1,FALSE,333.39,-1,left,green
223,198,test,crit,1,2,14,1,4,9,9,TRUE,333.39,1829,left,green
223,199,test,crit,1,3,23,2,3,12,12,TRUE,333.39,1304,left,green
223,200,test,crit,1,4,42,4,2,15,12,FALSE,333.39,1311,left,green
223,201,test,crit,1,5,34,3,4,22,22,TRUE,333.39,1230,left,green
223,202,test,crit,1,6,33,3,3,17,12,FALSE,333.39,1788,left,green
223,203,test,crit,1,7,43,4,3,22,-1,FALSE,333.39,-1,left,green
223,204,test,crit,1,8,12,1,2,5,5,TRUE,333.39,1209,left,green
223,205,test,crit,1,9,22,2,2,9,5,FALSE,333.39,1216,left,green
223,206,test,crit,1,10,32,3,2,12,12,TRUE,333.39,1272,left,green
223,207,test,crit,1,11,11,1,1,4,5,FALSE,333.39,1327,left,green
223,208,test,crit,1,12,24,2,4,15,-1,FALSE,333.39,-1,left,green
223,209,test,crit,1,13,13,1,3,7,12,FALSE,333.39,1690,left,green
223,210,test,crit,1,14,21,2,1,5,5,TRUE,333.39,1115,left,green
223,211,test,crit,1,15,44,4,4,29,22,FALSE,333.39,1081,left,green
223,212,test,crit,1,16,31,3,1,7,12,FALSE,333.39,875,left,green
223,213,test,crit,2,17,21,2,1,5,-1,FALSE,333.39,-1,left,green
223,214,test,crit,2,18,24,2,4,15,12,FALSE,333.39,1001,left,green
223,215,test,crit,2,19,12,1,2,5,5,TRUE,333.39,1190,left,green
223,216,test,crit,2,20,13,1,3,7,12,FALSE,333.39,1019,left,green
223,217,test,crit,2,21,14,1,4,9,9,TRUE,333.39,1649,left,green
223,218,test,crit,2,22,31,3,1,7,12,FALSE,333.39,1133,left,green
223,219,test,crit,2,23,32,3,2,12,12,TRUE,333.39,928,left,green
223,220,test,crit,2,24,43,4,3,22,22,TRUE,333.39,1480,left,green
223,221,test,crit,2,25,23,2,3,12,12,TRUE,333.39,737,left,green
223,222,test,crit,2,26,44,4,4,29,22,FALSE,333.39,1153,left,green
223,223,test,crit,2,27,34,3,4,22,12,FALSE,333.39,1856,left,green
223,224,test,crit,2,28,22,2,2,9,9,TRUE,333.39,1090,left,green
223,225,test,crit,2,29,42,4,2,15,12,FALSE,333.39,1278,left,green
223,226,test,crit,2,30,11,1,1,4,5,FALSE,333.39,1232,left,green
223,227,test,crit,2,31,33,3,3,17,12,FALSE,333.39,1196,left,green
223,228,test,crit,2,32,41,4,1,9,9,TRUE,333.39,1102,left,green
223,229,test,crit,3,33,34,3,4,22,22,TRUE,333.39,1979,left,green
223,230,test,crit,3,34,12,1,2,5,5,TRUE,333.39,1874,left,green
223,231,test,crit,3,35,32,3,2,12,12,TRUE,333.39,1212,left,green
223,232,test,crit,3,36,44,4,4,29,22,FALSE,333.39,1378,left,green
223,233,test,crit,3,37,41,4,1,9,12,FALSE,333.39,1238,left,green
223,234,test,crit,3,38,22,2,2,9,5,FALSE,333.39,1563,left,green
223,235,test,crit,3,39,33,3,3,17,12,FALSE,333.39,1194,left,green
223,236,test,crit,3,40,31,3,1,7,12,FALSE,333.39,1991,left,green
223,237,test,crit,3,41,13,1,3,7,12,FALSE,333.39,817,left,green
223,238,test,crit,3,42,23,2,3,12,12,TRUE,333.39,950,left,green
223,239,test,crit,3,43,43,4,3,22,22,TRUE,333.39,953,left,green
223,240,test,crit,3,44,24,2,4,15,12,FALSE,333.39,1242,left,green
223,241,test,crit,3,45,11,1,1,4,5,FALSE,333.39,1738,left,green
223,242,test,crit,3,46,14,1,4,9,9,TRUE,333.39,1295,left,green
223,243,test,crit,3,47,42,4,2,15,12,FALSE,333.39,986,left,green
223,244,test,crit,3,48,21,2,1,5,5,TRUE,333.39,1090,left,green
223,245,test,crit,4,49,22,2,2,9,9,TRUE,333.39,956,left,green
223,246,test,crit,4,50,44,4,4,29,22,FALSE,333.39,1009,left,green
223,247,test,crit,4,51,34,3,4,22,22,TRUE,333.39,1253,left,green
223,248,test,crit,4,52,21,2,1,5,5,TRUE,333.39,1023,left,green
223,249,test,crit,4,53,13,1,3,7,9,FALSE,333.39,1597,left,green
223,250,test,crit,4,54,33,3,3,17,12,FALSE,333.39,1055,left,green
223,251,test,crit,4,55,32,3,2,12,12,TRUE,333.39,906,left,green
223,252,test,crit,4,56,11,1,1,4,5,FALSE,333.39,911,left,green
223,253,test,crit,4,57,23,2,3,12,9,FALSE,333.39,830,left,green
223,254,test,crit,4,58,24,2,4,15,12,FALSE,333.39,1314,left,green
223,255,test,crit,4,59,14,1,4,9,9,TRUE,333.39,887,left,green
223,256,test,crit,4,60,31,3,1,7,9,FALSE,333.39,1106,left,green
223,257,test,crit,4,61,42,4,2,15,12,FALSE,333.39,777,left,green
223,258,test,crit,4,62,41,4,1,9,12,FALSE,333.39,905,left,green
223,259,test,crit,4,63,12,1,2,5,5,TRUE,333.39,773,left,green
223,260,test,crit,4,64,43,4,3,22,22,TRUE,333.39,949,left,green
223,261,test,crit,5,65,34,3,4,22,12,FALSE,333.39,877,left,green
223,262,test,crit,5,66,22,2,2,9,9,TRUE,333.39,954,left,green
223,263,test,crit,5,67,21,2,1,5,5,TRUE,333.39,1413,left,green
223,264,test,crit,5,68,23,2,3,12,9,FALSE,333.39,1183,left,green
223,265,test,crit,5,69,33,3,3,17,12,FALSE,333.39,1071,left,green
223,266,test,crit,5,70,44,4,4,29,22,FALSE,333.39,1378,left,green
223,267,test,crit,5,71,14,1,4,9,12,FALSE,333.39,1538,left,green
223,268,test,crit,5,72,31,3,1,7,9,FALSE,333.39,1019,left,green
223,269,test,crit,5,73,42,4,2,15,12,FALSE,333.39,747,left,green
223,270,test,crit,5,74,24,2,4,15,9,FALSE,333.39,849,left,green
223,271,test,crit,5,75,41,4,1,9,12,FALSE,333.39,901,left,green
223,272,test,crit,5,76,32,3,2,12,12,TRUE,333.39,933,left,green
223,273,test,crit,5,77,13,1,3,7,5,FALSE,333.39,1333,left,green
223,274,test,crit,5,78,43,4,3,22,22,TRUE,333.39,1139,left,green
223,275,test,crit,5,79,11,1,1,4,5,FALSE,333.39,918,left,green
223,276,test,crit,5,80,12,1,2,5,5,TRUE,333.39,852,left,green
223,277,test,crit,6,81,23,2,3,12,9,FALSE,333.39,894,left,green
223,278,test,crit,6,82,33,3,3,17,22,FALSE,333.39,1826,left,green
223,279,test,crit,6,83,22,2,2,9,12,FALSE,333.39,948,left,green
223,280,test,crit,6,84,21,2,1,5,5,TRUE,333.39,897,left,green
223,281,test,crit,6,85,42,4,2,15,12,FALSE,333.39,1085,left,green
223,282,test,crit,6,86,44,4,4,29,22,FALSE,333.39,729,left,green
223,283,test,crit,6,87,13,1,3,7,9,FALSE,333.39,1529,left,green
223,284,test,crit,6,88,12,1,2,5,5,TRUE,333.39,1188,left,green
223,285,test,crit,6,89,11,1,1,4,5,FALSE,333.39,813,left,green
223,286,test,crit,6,90,32,3,2,12,9,FALSE,333.39,1054,left,green
223,287,test,crit,6,91,24,2,4,15,12,FALSE,333.39,1652,left,green
223,288,test,crit,6,92,43,4,3,22,22,TRUE,333.39,1053,left,green
223,289,test,crit,6,93,31,3,1,7,12,FALSE,333.39,1005,left,green
223,290,test,crit,6,94,34,3,4,22,12,FALSE,333.39,765,left,green
223,291,test,crit,6,95,41,4,1,9,12,FALSE,333.39,1177,left,green
223,292,test,crit,6,96,14,1,4,9,9,TRUE,333.39,861,left,green
223,293,test,crit,7,97,21,2,1,5,5,TRUE,333.39,1266,left,green
223,294,test,crit,7,98,33,3,3,17,12,FALSE,333.39,1138,left,green
223,295,test,crit,7,99,44,4,4,29,12,FALSE,333.39,771,left,green
223,296,test,crit,7,100,24,2,4,15,12,FALSE,333.39,1154,left,green
223,297,test,crit,7,101,12,1,2,5,5,TRUE,333.39,1148,left,green
223,298,test,crit,7,102,41,4,1,9,9,TRUE,333.39,1336,left,green
223,299,test,crit,7,103,14,1,4,9,9,TRUE,333.39,1217,left,green
223,300,test,crit,7,104,31,3,1,7,9,FALSE,333.39,903,left,green
223,301,test,crit,7,105,32,3,2,12,9,FALSE,333.39,743,left,green
223,302,test,crit,7,106,34,3,4,22,12,FALSE,333.39,862,left,green
223,303,test,crit,7,107,13,1,3,7,5,FALSE,333.39,1079,left,green
223,304,test,crit,7,108,22,2,2,9,5,FALSE,333.39,1204,left,green
223,305,test,crit,7,109,11,1,1,4,5,FALSE,333.39,958,left,green
223,306,test,crit,7,110,23,2,3,12,5,FALSE,333.39,708,left,green
223,307,test,crit,7,111,43,4,3,22,22,TRUE,333.39,1449,left,green
223,308,test,crit,7,112,42,4,2,15,12,FALSE,333.39,1152,left,green
223,309,test,crit,8,113,41,4,1,9,12,FALSE,333.39,838,left,green
223,310,test,crit,8,114,12,1,2,5,5,TRUE,333.39,891,left,green
223,311,test,crit,8,115,43,4,3,22,22,TRUE,333.39,1554,left,green
223,312,test,crit,8,116,24,2,4,15,12,FALSE,333.39,1011,left,green
223,313,test,crit,8,117,33,3,3,17,12,FALSE,333.39,765,left,green
223,314,test,crit,8,118,31,3,1,7,9,FALSE,333.39,746,left,green
223,315,test,crit,8,119,34,3,4,22,22,TRUE,333.39,1058,left,green
223,316,test,crit,8,120,23,2,3,12,12,TRUE,333.39,949,left,green
223,317,test,crit,8,121,11,1,1,4,5,FALSE,333.39,1921,left,green
223,318,test,crit,8,122,13,1,3,7,9,FALSE,333.39,1050,left,green
223,319,test,crit,8,123,14,1,4,9,9,TRUE,333.39,763,left,green
223,320,test,crit,8,124,22,2,2,9,9,TRUE,333.39,699,left,green
223,321,test,crit,8,125,32,3,2,12,9,FALSE,333.39,1180,left,green
223,322,test,crit,8,126,21,2,1,5,5,TRUE,333.39,1091,left,green
223,323,test,crit,8,127,44,4,4,29,22,FALSE,333.39,833,left,green
223,324,test,crit,8,128,42,4,2,15,12,FALSE,333.39,1003,left,green
223,325,test,loc,1,1,21,2,1,2,0,FALSE,,6606,left,green
223,326,test,loc,1,2,32,3,2,3,3,TRUE,,500,left,green
223,327,test,loc,1,3,12,1,2,0,0,TRUE,,3408,left,green
223,328,test,loc,1,4,23,2,3,0,3,FALSE,,440,left,green
223,329,test,loc,1,5,43,4,3,4,0,FALSE,,2229,left,green
223,330,test,loc,1,6,34,3,4,0,0,TRUE,,3941,left,green
223,331,test,loc,1,7,14,1,4,1,1,TRUE,,567,left,green
223,332,test,loc,1,8,41,4,1,0,0,TRUE,,4022,left,green
224,1,psych,loc,1,1,31,3,1,4,2,FALSE,2000,,right,purple
224,2,psych,loc,1,2,32,3,2,3,3,TRUE,2400,,right,purple
224,3,psych,loc,1,3,42,4,2,2,2,TRUE,2400,,right,purple
224,4,psych,loc,1,4,23,2,3,3,3,TRUE,2400,,right,purple
224,5,psych,loc,1,5,13,1,3,2,2,TRUE,2400,,right,purple
224,6,psych,loc,1,6,14,1,4,1,1,TRUE,2063.4,,right,purple
224,7,psych,loc,1,7,21,2,1,1,1,TRUE,2063.4,,right,purple
224,8,psych,loc,1,8,34,3,4,3,3,TRUE,2063.4,,right,purple
224,9,psych,loc,1,9,44,4,4,4,4,TRUE,2063.4,,right,purple
224,10,psych,loc,1,10,43,4,3,3,3,TRUE,1726.8,,right,purple
224,11,psych,loc,1,11,33,3,3,4,2,FALSE,1726.8,,right,purple
224,12,psych,loc,1,12,11,1,1,1,1,TRUE,2126.8,,right,purple
224,13,psych,loc,1,13,12,1,2,4,4,TRUE,2126.8,,right,purple
224,14,psych,loc,1,14,24,2,4,4,4,TRUE,2126.8,,right,purple
224,15,psych,loc,1,15,41,4,1,4,4,TRUE,1790.2,,right,purple
224,16,psych,loc,1,16,22,2,2,1,1,TRUE,1790.2,,right,purple
224,17,psych,loc,2,17,12,1,2,3,3,TRUE,1790.2,,right,purple
224,18,psych,loc,2,18,44,4,4,4,4,TRUE,1790.2,,right,purple
224,19,psych,loc,2,19,41,4,1,3,3,TRUE,1453.6,,right,purple
224,20,psych,loc,2,20,42,4,2,3,3,TRUE,1453.6,,right,purple
224,21,psych,loc,2,21,22,2,2,1,1,TRUE,1453.6,,right,purple
224,22,psych,loc,2,22,23,2,3,1,3,FALSE,1453.6,,right,purple
224,23,psych,loc,2,23,43,4,3,4,4,TRUE,1853.6,,right,purple
224,24,psych,loc,2,24,14,1,4,1,1,TRUE,1517,,right,purple
224,25,psych,loc,2,25,11,1,1,3,3,TRUE,1517,,right,purple
224,26,psych,loc,2,26,32,3,2,3,3,TRUE,1517,,right,purple
224,27,psych,loc,2,27,21,2,1,4,4,TRUE,1517,,right,purple
224,28,psych,loc,2,28,13,1,3,3,3,TRUE,1180.4,,right,purple
224,29,psych,loc,2,29,34,3,4,2,0,FALSE,1180.4,,right,purple
224,30,psych,loc,2,30,24,2,4,1,1,TRUE,1180.4,,right,purple
224,31,psych,loc,2,31,33,3,3,1,1,TRUE,1180.4,,right,purple
224,32,psych,loc,2,32,31,3,1,1,1,TRUE,843.8,,right,purple
224,33,psych,loc,3,33,23,2,3,1,1,TRUE,843.8,,right,purple
224,34,psych,loc,3,34,34,3,4,4,4,TRUE,843.8,,right,purple
224,35,psych,loc,3,35,12,1,2,3,3,TRUE,843.8,,right,purple
224,36,psych,loc,3,36,11,1,1,1,0,FALSE,507.2,,right,purple
224,37,psych,loc,3,37,42,4,2,1,1,TRUE,507.2,,right,purple
224,38,psych,loc,3,38,43,4,3,4,4,TRUE,507.2,,right,purple
224,39,psych,loc,3,39,14,1,4,1,1,TRUE,507.2,,right,purple
224,40,psych,loc,3,40,32,3,2,3,3,TRUE,170.6,,right,purple
224,41,psych,loc,3,41,33,3,3,4,4,TRUE,170.6,,right,purple
224,42,psych,loc,3,42,13,1,3,1,1,TRUE,170.6,,right,purple
224,43,psych,loc,3,43,24,2,4,4,1,FALSE,170.6,,right,purple
224,44,psych,loc,3,44,31,3,1,2,2,TRUE,570.6,,right,purple
224,45,psych,loc,3,45,41,4,1,3,3,TRUE,234,,right,purple
224,46,psych,loc,3,46,44,4,4,1,1,TRUE,234,,right,purple
224,47,psych,loc,3,47,21,2,1,2,2,TRUE,234,,right,purple
224,48,psych,loc,3,48,22,2,2,4,4,TRUE,234,,right,purple
224,49,train,loc,1,1,12,1,2,0,1,FALSE,,2233,right,purple
224,50,train,loc,1,2,41,4,1,0,0,TRUE,,5855,right,purple
224,51,train,loc,1,3,14,1,4,3,0,FALSE,,5304,right,purple
224,52,train,loc,1,4,43,4,3,1,0,FALSE,,2298,right,purple
224,53,train,loc,1,5,23,2,3,0,1,FALSE,,3247,right,purple
224,54,train,loc,1,6,34,3,4,0,4,FALSE,,4363,right,purple
224,55,train,loc,1,7,32,3,2,2,0,FALSE,,3079,right,purple
224,56,train,loc,1,8,21,2,1,4,3,FALSE,,1851,right,purple
224,57,train,loc,2,9,32,3,2,2,3,FALSE,,4950,right,purple
224,58,train,loc,2,10,41,4,1,0,0,TRUE,,2591,right,purple
224,59,train,loc,2,11,34,3,4,0,0,TRUE,,2216,right,purple
224,60,train,loc,2,12,12,1,2,0,4,FALSE,,3666,right,purple
224,61,train,loc,2,13,43,4,3,1,1,TRUE,,4857,right,purple
224,62,train,loc,2,14,14,1,4,3,3,TRUE,,2318,right,purple
224,63,train,loc,2,15,21,2,1,4,4,TRUE,,1570,right,purple
224,64,train,loc,2,16,23,2,3,0,2,FALSE,,2117,right,purple
224,65,train,loc,3,17,41,4,1,0,3,FALSE,,2054,right,purple
224,66,train,loc,3,18,43,4,3,1,1,TRUE,,2598,right,purple
224,67,train,loc,3,19,32,3,2,2,2,TRUE,,2099,right,purple
224,68,train,loc,3,20,21,2,1,4,4,TRUE,,1471,right,purple
224,69,train,loc,3,21,14,1,4,3,3,TRUE,,1734,right,purple
224,70,train,loc,3,22,34,3,4,0,1,FALSE,,1806,right,purple
224,71,train,loc,3,23,12,1,2,0,4,FALSE,,1573,right,purple
224,72,train,loc,3,24,23,2,3,0,3,FALSE,,1949,right,purple
224,73,train,loc,4,25,32,3,2,2,3,FALSE,,1841,right,purple
224,74,train,loc,4,26,43,4,3,1,1,TRUE,,263,right,purple
224,75,train,loc,4,27,34,3,4,0,1,FALSE,,1943,right,purple
224,76,train,loc,4,28,14,1,4,3,3,TRUE,,2390,right,purple
224,77,train,loc,4,29,41,4,1,0,2,FALSE,,1215,right,purple
224,78,train,loc,4,30,12,1,2,0,4,FALSE,,1812,right,purple
224,79,train,loc,4,31,21,2,1,4,4,TRUE,,1331,right,purple
224,80,train,loc,4,32,23,2,3,0,2,FALSE,,1354,right,purple
224,81,train,loc,5,33,32,3,2,2,3,FALSE,,67,right,purple
224,82,train,loc,5,34,12,1,2,0,4,FALSE,,1357,right,purple
224,83,train,loc,5,35,43,4,3,1,1,TRUE,,2551,right,purple
224,84,train,loc,5,36,23,2,3,0,3,FALSE,,1358,right,purple
224,85,train,loc,5,37,34,3,4,0,1,FALSE,,1262,right,purple
224,86,train,loc,5,38,41,4,1,0,3,FALSE,,2678,right,purple
224,87,train,loc,5,39,21,2,1,4,4,TRUE,,1513,right,purple
224,88,train,loc,5,40,14,1,4,3,3,TRUE,,1824,right,purple
224,89,train,loc,6,41,12,1,2,0,4,FALSE,,2211,right,purple
224,90,train,loc,6,42,23,2,3,0,3,FALSE,,1150,right,purple
224,91,train,loc,6,43,34,3,4,0,1,FALSE,,1967,right,purple
224,92,train,loc,6,44,21,2,1,4,4,TRUE,,1351,right,purple
224,93,train,loc,6,45,41,4,1,0,2,FALSE,,1210,right,purple
224,94,train,loc,6,46,32,3,2,2,2,TRUE,,202,right,purple
224,95,train,loc,6,47,43,4,3,1,1,TRUE,,1541,right,purple
224,96,train,loc,6,48,14,1,4,3,3,TRUE,,1769,right,purple
224,97,train,loc,7,49,12,1,2,0,4,FALSE,,1488,right,purple
224,98,train,loc,7,50,41,4,1,0,2,FALSE,,1942,right,purple
224,99,train,loc,7,51,43,4,3,1,1,TRUE,,1652,right,purple
224,100,train,loc,7,52,23,2,3,0,2,FALSE,,2031,right,purple
224,101,train,loc,7,53,34,3,4,0,1,FALSE,,1884,right,purple
224,102,train,loc,7,54,14,1,4,3,3,TRUE,,1798,right,purple
224,103,train,loc,7,55,21,2,1,4,4,TRUE,,2162,right,purple
224,104,train,loc,7,56,32,3,2,2,3,FALSE,,1357,right,purple
224,105,train,loc,8,57,21,2,1,4,2,FALSE,,800,right,purple
224,106,train,loc,8,58,41,4,1,0,3,FALSE,,1597,right,purple
224,107,train,loc,8,59,14,1,4,3,3,TRUE,,1983,right,purple
224,108,train,loc,8,60,12,1,2,0,4,FALSE,,1341,right,purple
224,109,train,loc,8,61,43,4,3,1,1,TRUE,,2045,right,purple
224,110,train,loc,8,62,23,2,3,0,2,FALSE,,2199,right,purple
224,111,train,loc,8,63,32,3,2,2,2,TRUE,,1949,right,purple
224,112,train,loc,8,64,34,3,4,0,1,FALSE,,1242,right,purple
224,113,train,loc,9,65,14,1,4,3,3,TRUE,,2022,right,purple
224,114,train,loc,9,66,43,4,3,1,1,TRUE,,1346,right,purple
224,115,train,loc,9,67,21,2,1,4,4,TRUE,,1346,right,purple
224,116,train,loc,9,68,34,3,4,0,1,FALSE,,1109,right,purple
224,117,train,loc,9,69,12,1,2,0,4,FALSE,,1404,right,purple
224,118,train,loc,9,70,23,2,3,0,2,FALSE,,2072,right,purple
224,119,train,loc,9,71,41,4,1,0,2,FALSE,,2843,right,purple
224,120,train,loc,9,72,32,3,2,2,2,TRUE,,1794,right,purple
224,121,train,loc,10,73,43,4,3,1,1,TRUE,,2614,right,purple
224,122,train,loc,10,74,41,4,1,0,2,FALSE,,3247,right,purple
224,123,train,loc,10,75,14,1,4,3,3,TRUE,,2063,right,purple
224,124,train,loc,10,76,32,3,2,2,2,TRUE,,1658,right,purple
224,125,train,loc,10,77,34,3,4,0,1,FALSE,,1073,right,purple
224,126,train,loc,10,78,21,2,1,4,4,TRUE,,1070,right,purple
224,127,train,loc,10,79,23,2,3,0,3,FALSE,,1385,right,purple
224,128,train,loc,10,80,12,1,2,0,2,FALSE,,1065,right,purple
224,129,train,loc,11,81,12,1,2,0,2,FALSE,,3130,right,purple
224,130,train,loc,11,82,43,4,3,1,1,TRUE,,1428,right,purple
224,131,train,loc,11,83,41,4,1,0,2,FALSE,,1078,right,purple
224,132,train,loc,11,84,34,3,4,0,3,FALSE,,2140,right,purple
224,133,train,loc,11,85,23,2,3,0,3,FALSE,,2238,right,purple
224,134,train,loc,11,86,21,2,1,4,4,TRUE,,1057,right,purple
224,135,train,loc,11,87,32,3,2,2,2,TRUE,,1143,right,purple
224,136,train,loc,11,88,14,1,4,3,4,FALSE,,1808,right,purple
224,137,train,loc,12,89,21,2,1,4,4,TRUE,,1567,right,purple
224,138,train,loc,12,90,41,4,1,0,2,FALSE,,1634,right,purple
224,139,train,loc,12,91,43,4,3,1,1,TRUE,,2065,right,purple
224,140,train,loc,12,92,14,1,4,3,3,TRUE,,2171,right,purple
224,141,train,loc,12,93,12,1,2,0,4,FALSE,,1303,right,purple
224,142,train,loc,12,94,32,3,2,2,2,TRUE,,1658,right,purple
224,143,train,loc,12,95,34,3,4,0,1,FALSE,,1513,right,purple
224,144,train,loc,12,96,23,2,3,0,2,FALSE,,1617,right,purple
224,145,train,loc,13,97,32,3,2,2,2,TRUE,,1119,right,purple
224,146,train,loc,13,98,12,1,2,0,2,FALSE,,1243,right,purple
224,147,train,loc,13,99,23,2,3,0,2,FALSE,,1744,right,purple
224,148,train,loc,13,100,41,4,1,0,2,FALSE,,2039,right,purple
224,149,train,loc,13,101,34,3,4,0,1,FALSE,,1741,right,purple
224,150,train,loc,13,102,21,2,1,4,4,TRUE,,985,right,purple
224,151,train,loc,13,103,43,4,3,1,1,TRUE,,1793,right,purple
224,152,train,loc,13,104,14,1,4,3,3,TRUE,,2084,right,purple
224,153,train,loc,14,105,32,3,2,2,2,TRUE,,1693,right,purple
224,154,train,loc,14,106,34,3,4,0,1,FALSE,,2052,right,purple
224,155,train,loc,14,107,21,2,1,4,4,TRUE,,1139,right,purple
224,156,train,loc,14,108,41,4,1,0,2,FALSE,,1591,right,purple
224,157,train,loc,14,109,14,1,4,3,3,TRUE,,2774,right,purple
224,158,train,loc,14,110,23,2,3,0,2,FALSE,,1535,right,purple
224,159,train,loc,14,111,12,1,2,0,4,FALSE,,1527,right,purple
224,160,train,loc,14,112,43,4,3,1,1,TRUE,,1322,right,purple
224,161,train,loc,15,113,21,2,1,4,4,TRUE,,973,right,purple
224,162,train,loc,15,114,41,4,1,0,2,FALSE,,2739,right,purple
224,163,train,loc,15,115,12,1,2,0,4,FALSE,,1014,right,purple
224,164,train,loc,15,116,14,1,4,3,3,TRUE,,1815,right,purple
224,165,train,loc,15,117,43,4,3,1,1,TRUE,,2269,right,purple
224,166,train,loc,15,118,34,3,4,0,0,TRUE,,3743,right,purple
224,167,train,loc,15,119,32,3,2,2,2,TRUE,,1887,right,purple
224,168,train,loc,15,120,23,2,3,0,4,FALSE,,2049,right,purple
224,169,train,crit,1,1,14,1,4,9,-1,FALSE,,-1,right,purple
224,170,train,crit,1,2,21,2,1,5,3,FALSE,,1432,right,purple
224,171,train,crit,1,3,43,4,3,22,7,FALSE,,1432,right,purple
224,172,train,crit,1,4,32,3,2,12,-1,FALSE,,-1,right,purple
224,173,train,crit,2,5,32,3,2,12,-1,FALSE,,-1,right,purple
224,174,train,crit,2,6,43,4,3,22,12,FALSE,,852,right,purple
224,175,train,crit,2,7,21,2,1,5,10,FALSE,,1134,right,purple
224,176,train,crit,2,8,14,1,4,9,12,FALSE,,1240,right,purple
224,177,train,crit,3,9,32,3,2,12,7,FALSE,,1600,right,purple
224,178,train,crit,3,10,43,4,3,22,15,FALSE,,941,right,purple
224,179,train,crit,3,11,21,2,1,5,9,FALSE,,1383,right,purple
224,180,train,crit,3,12,14,1,4,9,6,FALSE,,1225,right,purple
224,181,train,crit,4,13,21,2,1,5,5,TRUE,,1303,right,purple
224,182,train,crit,4,14,14,1,4,9,6,FALSE,,1044,right,purple
224,183,train,crit,4,15,43,4,3,22,11,FALSE,,1314,right,purple
224,184,train,crit,4,16,32,3,2,12,8,FALSE,,1274,right,purple
224,185,train,crit,5,17,21,2,1,5,-1,FALSE,,-1,right,purple
224,186,train,crit,5,18,43,4,3,22,-1,FALSE,,-1,right,purple
224,187,train,crit,5,19,14,1,4,9,8,FALSE,,924,right,purple
224,188,train,crit,5,20,32,3,2,12,8,FALSE,,878,right,purple
224,189,train,crit,6,21,14,1,4,9,10,FALSE,,985,right,purple
224,190,train,crit,6,22,32,3,2,12,11,FALSE,,651,right,purple
224,191,train,crit,6,23,43,4,3,22,15,FALSE,,997,right,purple
224,192,train,crit,6,24,21,2,1,5,-1,FALSE,,-1,right,purple
224,193,train,crit,7,25,14,1,4,9,8,FALSE,,1812,right,purple
224,194,train,crit,7,26,43,4,3,22,19,FALSE,,1121,right,purple
224,195,train,crit,7,27,32,3,2,12,14,FALSE,,1125,right,purple
224,196,train,crit,7,28,21,2,1,5,8,FALSE,,941,right,purple
224,197,train,crit,8,29,43,4,3,22,13,FALSE,,1223,right,purple
224,198,train,crit,8,30,14,1,4,9,13,FALSE,,1181,right,purple
224,199,train,crit,8,31,21,2,1,5,6,FALSE,,1405,right,purple
224,200,train,crit,8,32,32,3,2,12,12,TRUE,,1237,right,purple
224,201,train,crit,9,33,21,2,1,5,3,FALSE,,1741,right,purple
224,202,train,crit,9,34,14,1,4,9,6,FALSE,,1271,right,purple
224,203,train,crit,9,35,32,3,2,12,7,FALSE,,1168,right,purple
224,204,train,crit,9,36,43,4,3,22,11,FALSE,,701,right,purple
224,205,train,crit,10,37,14,1,4,9,8,FALSE,,693,right,purple
224,206,train,crit,10,38,32,3,2,12,10,FALSE,,949,right,purple
224,207,train,crit,10,39,21,2,1,5,4,FALSE,,1172,right,purple
224,208,train,crit,10,40,43,4,3,22,12,FALSE,,686,right,purple
224,209,test,crit,1,1,13,1,3,7,-1,FALSE,1145.57,-1,right,purple
224,210,test,crit,1,2,34,3,4,22,9,FALSE,1145.57,1381,right,purple
224,211,test,crit,1,3,23,2,3,12,10,FALSE,1145.57,955,right,purple
224,212,test,crit,1,4,22,2,2,9,4,FALSE,1145.57,1013,right,purple
224,213,test,crit,1,5,31,3,1,7,4,FALSE,1145.57,1520,right,purple
224,214,test,crit,1,6,44,4,4,29,12,FALSE,1145.57,1143,right,purple
224,215,test,crit,1,7,12,1,2,5,3,FALSE,1145.57,777,right,purple
224,216,test,crit,1,8,41,4,1,9,8,FALSE,1145.57,1072,right,purple
224,217,test,crit,1,9,32,3,2,12,8,FALSE,1145.57,775,right,purple
224,218,test,crit,1,10,33,3,3,17,12,FALSE,1145.57,1053,right,purple
224,219,test,crit,1,11,11,1,1,4,5,FALSE,1145.57,1655,right,purple
224,220,test,crit,1,12,24,2,4,15,6,FALSE,1145.57,871,right,purple
224,221,test,crit,1,13,43,4,3,22,7,FALSE,1145.57,938,right,purple
224,222,test,crit,1,14,21,2,1,5,3,FALSE,1145.57,601,right,purple
224,223,test,crit,1,15,14,1,4,9,7,FALSE,1145.57,823,right,purple
224,224,test,crit,1,16,42,4,2,15,12,FALSE,1145.57,579,right,purple
224,225,test,crit,2,17,31,3,1,7,9,FALSE,1145.57,821,right,purple
224,226,test,crit,2,18,14,1,4,9,10,FALSE,1145.57,1073,right,purple
224,227,test,crit,2,19,22,2,2,9,8,FALSE,1145.57,1683,right,purple
224,228,test,crit,2,20,12,1,2,5,6,FALSE,1145.57,740,right,purple
224,229,test,crit,2,21,33,3,3,17,9,FALSE,1145.57,1050,right,purple
224,230,test,crit,2,22,21,2,1,5,3,FALSE,1145.57,1094,right,purple
224,231,test,crit,2,23,11,1,1,4,3,FALSE,1145.57,652,right,purple
224,232,test,crit,2,24,43,4,3,22,9,FALSE,1145.57,877,right,purple
224,233,test,crit,2,25,32,3,2,12,5,FALSE,1145.57,822,right,purple
224,234,test,crit,2,26,13,1,3,7,10,FALSE,1145.57,1415,right,purple
224,235,test,crit,2,27,41,4,1,9,5,FALSE,1145.57,881,right,purple
224,236,test,crit,2,28,24,2,4,15,8,FALSE,1145.57,1057,right,purple
224,237,test,crit,2,29,34,3,4,22,9,FALSE,1145.57,1021,right,purple
224,238,test,crit,2,30,44,4,4,29,8,FALSE,1145.57,1538,right,purple
224,239,test,crit,2,31,23,2,3,12,9,FALSE,1145.57,668,right,purple
224,240,test,crit,2,32,42,4,2,15,9,FALSE,1145.57,599,right,purple
224,241,test,crit,3,33,33,3,3,17,14,FALSE,1145.57,561,right,purple
224,242,test,crit,3,34,12,1,2,5,6,FALSE,1145.57,679,right,purple
224,243,test,crit,3,35,43,4,3,22,9,FALSE,1145.57,727,right,purple
224,244,test,crit,3,36,31,3,1,7,10,FALSE,1145.57,916,right,purple
224,245,test,crit,3,37,32,3,2,12,10,FALSE,1145.57,338,right,purple
224,246,test,crit,3,38,13,1,3,7,8,FALSE,1145.57,1059,right,purple
224,247,test,crit,3,39,24,2,4,15,10,FALSE,1145.57,1287,right,purple
224,248,test,crit,3,40,41,4,1,9,7,FALSE,1145.57,968,right,purple
224,249,test,crit,3,41,42,4,2,15,9,FALSE,1145.57,673,right,purple
224,250,test,crit,3,42,14,1,4,9,9,TRUE,1145.57,910,right,purple
224,251,test,crit,3,43,11,1,1,4,4,TRUE,1145.57,999,right,purple
224,252,test,crit,3,44,21,2,1,5,7,FALSE,1145.57,897,right,purple
224,253,test,crit,3,45,44,4,4,29,9,FALSE,1145.57,1260,right,purple
224,254,test,crit,3,46,22,2,2,9,4,FALSE,1145.57,1199,right,purple
224,255,test,crit,3,47,23,2,3,12,8,FALSE,1145.57,1433,right,purple
224,256,test,crit,3,48,34,3,4,22,12,FALSE,1145.57,1337,right,purple
224,257,test,crit,4,49,31,3,1,7,10,FALSE,1145.57,867,right,purple
224,258,test,crit,4,50,21,2,1,5,5,TRUE,1145.57,989,right,purple
224,259,test,crit,4,51,32,3,2,12,9,FALSE,1145.57,1091,right,purple
224,260,test,crit,4,52,23,2,3,12,9,FALSE,1145.57,822,right,purple
224,261,test,crit,4,53,13,1,3,7,4,FALSE,1145.57,1442,right,purple
224,262,test,crit,4,54,11,1,1,4,2,FALSE,1145.57,695,right,purple
224,263,test,crit,4,55,43,4,3,22,7,FALSE,1145.57,934,right,purple
224,264,test,crit,4,56,34,3,4,22,10,FALSE,1145.57,1273,right,purple
224,265,test,crit,4,57,44,4,4,29,12,FALSE,1145.57,980,right,purple
224,266,test,crit,4,58,22,2,2,9,6,FALSE,1145.57,1601,right,purple
224,267,test,crit,4,59,12,1,2,5,4,FALSE,1145.57,1028,right,purple
224,268,test,crit,4,60,41,4,1,9,6,FALSE,1145.57,1140,right,purple
224,269,test,crit,4,61,14,1,4,9,11,FALSE,1145.57,621,right,purple
224,270,test,crit,4,62,24,2,4,15,6,FALSE,1145.57,851,right,purple
224,271,test,crit,4,63,33,3,3,17,7,FALSE,1145.57,1057,right,purple
224,272,test,crit,4,64,42,4,2,15,-1,FALSE,1145.57,-1,right,purple
224,273,test,crit,5,65,23,2,3,12,9,FALSE,1145.57,950,right,purple
224,274,test,crit,5,66,21,2,1,5,5,TRUE,1145.57,1024,right,purple
224,275,test,crit,5,67,12,1,2,5,6,FALSE,1145.57,636,right,purple
224,276,test,crit,5,68,41,4,1,9,-1,FALSE,1145.57,-1,right,purple
224,277,test,crit,5,69,14,1,4,9,5,FALSE,1145.57,1148,right,purple
224,278,test,crit,5,70,13,1,3,7,4,FALSE,1145.57,1374,right,purple
224,279,test,crit,5,71,43,4,3,22,7,FALSE,1145.57,785,right,purple
224,280,test,crit,5,72,22,2,2,9,4,FALSE,1145.57,930,right,purple
224,281,test,crit,5,73,44,4,4,29,8,FALSE,1145.57,980,right,purple
224,282,test,crit,5,74,34,3,4,22,7,FALSE,1145.57,1231,right,purple
224,283,test,crit,5,75,31,3,1,7,4,FALSE,1145.57,1321,right,purple
224,284,test,crit,5,76,24,2,4,15,6,FALSE,1145.57,866,right,purple
224,285,test,crit,5,77,33,3,3,17,6,FALSE,1145.57,758,right,purple
224,286,test,crit,5,78,11,1,1,4,2,FALSE,1145.57,1060,right,purple
224,287,test,crit,5,79,42,4,2,15,6,FALSE,1145.57,1224,right,purple
224,288,test,crit,5,80,32,3,2,12,5,FALSE,1145.57,1333,right,purple
224,289,test,crit,6,81,13,1,3,7,5,FALSE,1145.57,787,right,purple
224,290,test,crit,6,82,33,3,3,17,7,FALSE,1145.57,1505,right,purple
224,291,test,crit,6,83,11,1,1,4,2,FALSE,1145.57,874,right,purple
224,292,test,crit,6,84,41,4,1,9,5,FALSE,1145.57,930,right,purple
224,293,test,crit,6,85,24,2,4,15,7,FALSE,1145.57,544,right,purple
224,294,test,crit,6,86,21,2,1,5,3,FALSE,1145.57,699,right,purple
224,295,test,crit,6,87,32,3,2,12,6,FALSE,1145.57,603,right,purple
224,296,test,crit,6,88,34,3,4,22,7,FALSE,1145.57,1114,right,purple
224,297,test,crit,6,89,42,4,2,15,6,FALSE,1145.57,907,right,purple
224,298,test,crit,6,90,23,2,3,12,5,FALSE,1145.57,686,right,purple
224,299,test,crit,6,91,43,4,3,22,7,FALSE,1145.57,973,right,purple
224,300,test,crit,6,92,12,1,2,5,3,FALSE,1145.57,598,right,purple
224,301,test,crit,6,93,31,3,1,7,4,FALSE,1145.57,941,right,purple
224,302,test,crit,6,94,44,4,4,29,8,FALSE,1145.57,1058,right,purple
224,303,test,crit,6,95,14,1,4,9,9,TRUE,1145.57,800,right,purple
224,304,test,crit,6,96,22,2,2,9,4,FALSE,1145.57,794,right,purple
224,305,test,crit,7,97,13,1,3,7,5,FALSE,1145.57,941,right,purple
224,306,test,crit,7,98,42,4,2,15,7,FALSE,1145.57,267,right,purple
224,307,test,crit,7,99,44,4,4,29,8,FALSE,1145.57,629,right,purple
224,308,test,crit,7,100,11,1,1,4,2,FALSE,1145.57,901,right,purple
224,309,test,crit,7,101,34,3,4,22,7,FALSE,1145.57,1109,right,purple
224,310,test,crit,7,102,14,1,4,9,9,TRUE,1145.57,844,right,purple
224,311,test,crit,7,103,43,4,3,22,7,FALSE,1145.57,679,right,purple
224,312,test,crit,7,104,33,3,3,17,6,FALSE,1145.57,1023,right,purple
224,313,test,crit,7,105,12,1,2,5,3,FALSE,1145.57,1690,right,purple
224,314,test,crit,7,106,41,4,1,9,5,FALSE,1145.57,807,right,purple
224,315,test,crit,7,107,32,3,2,12,5,FALSE,1145.57,1111,right,purple
224,316,test,crit,7,108,21,2,1,5,3,FALSE,1145.57,815,right,purple
224,317,test,crit,7,109,23,2,3,12,5,FALSE,1145.57,1261,right,purple
224,318,test,crit,7,110,22,2,2,9,4,FALSE,1145.57,796,right,purple
224,319,test,crit,7,111,24,2,4,15,5,FALSE,1145.57,773,right,purple
224,320,test,crit,7,112,31,3,1,7,4,FALSE,1145.57,640,right,purple
224,321,test,crit,8,113,21,2,1,5,3,FALSE,1145.57,822,right,purple
224,322,test,crit,8,114,34,3,4,22,7,FALSE,1145.57,839,right,purple
224,323,test,crit,8,115,13,1,3,7,4,FALSE,1145.57,653,right,purple
224,324,test,crit,8,116,32,3,2,12,5,FALSE,1145.57,527,right,purple
224,325,test,crit,8,117,11,1,1,4,5,FALSE,1145.57,215,right,purple
224,326,test,crit,8,118,42,4,2,15,6,FALSE,1145.57,701,right,purple
224,327,test,crit,8,119,14,1,4,9,5,FALSE,1145.57,653,right,purple
224,328,test,crit,8,120,44,4,4,29,8,FALSE,1145.57,1371,right,purple
224,329,test,crit,8,121,22,2,2,9,4,FALSE,1145.57,925,right,purple
224,330,test,crit,8,122,43,4,3,22,7,FALSE,1145.57,481,right,purple
224,331,test,crit,8,123,12,1,2,5,3,FALSE,1145.57,975,right,purple
224,332,test,crit,8,124,33,3,3,17,6,FALSE,1145.57,735,right,purple
224,333,test,crit,8,125,23,2,3,12,4,FALSE,1145.57,684,right,purple
224,334,test,crit,8,126,24,2,4,15,16,FALSE,1145.57,1862,right,purple
224,335,test,crit,8,127,41,4,1,9,5,FALSE,1145.57,704,right,purple
224,336,test,crit,8,128,31,3,1,7,4,FALSE,1145.57,536,right,purple
224,337,test,loc,1,1,23,2,3,0,4,FALSE,,2076,right,purple
224,338,test,loc,1,2,14,1,4,3,4,FALSE,,1407,right,purple
224,339,test,loc,1,3,34,3,4,0,2,FALSE,,910,right,purple
224,340,test,loc,1,4,21,2,1,4,4,TRUE,,2204,right,purple
224,341,test,loc,1,5,41,4,1,0,2,FALSE,,1468,right,purple
224,342,test,loc,1,6,12,1,2,0,4,FALSE,,1072,right,purple
224,343,test,loc,1,7,43,4,3,1,1,TRUE,,1659,right,purple
224,344,test,loc,1,8,32,3,2,2,4,FALSE,,2062,right,purple
225,1,psych,loc,1,1,33,3,3,1,1,TRUE,2000,,right,green
225,2,psych,loc,1,2,34,3,4,2,2,TRUE,1663.4,,right,green
225,3,psych,loc,1,3,23,2,3,2,2,TRUE,1663.4,,right,green
225,4,psych,loc,1,4,12,1,2,2,2,TRUE,1663.4,,right,green
225,5,psych,loc,1,5,11,1,1,2,2,TRUE,1663.4,,right,green
225,6,psych,loc,1,6,44,4,4,4,4,TRUE,1326.8,,right,green
225,7,psych,loc,1,7,42,4,2,3,3,TRUE,1326.8,,right,green
225,8,psych,loc,1,8,13,1,3,2,2,TRUE,1326.8,,right,green
225,9,psych,loc,1,9,32,3,2,4,4,TRUE,1326.8,,right,green
225,10,psych,loc,1,10,43,4,3,2,2,TRUE,990.2,,right,green
225,11,psych,loc,1,11,14,1,4,4,4,TRUE,990.2,,right,green
225,12,psych,loc,1,12,22,2,2,4,4,TRUE,990.2,,right,green
225,13,psych,loc,1,13,21,2,1,2,2,TRUE,990.2,,right,green
225,14,psych,loc,1,14,31,3,1,4,4,TRUE,653.6,,right,green
225,15,psych,loc,1,15,24,2,4,4,4,TRUE,653.6,,right,green
225,16,psych,loc,1,16,41,4,1,3,3,TRUE,653.6,,right,green
225,17,psych,loc,2,17,34,3,4,2,2,TRUE,653.6,,right,green
225,18,psych,loc,2,18,11,1,1,2,2,TRUE,317,,right,green
225,19,psych,loc,2,19,21,2,1,4,4,TRUE,317,,right,green
225,20,psych,loc,2,20,32,3,2,3,3,TRUE,317,,right,green
225,21,psych,loc,2,21,42,4,2,2,2,TRUE,317,,right,green
225,22,psych,loc,2,22,23,2,3,3,3,TRUE,,,right,green
225,23,psych,loc,2,23,33,3,3,4,1,FALSE,,,right,green
225,24,psych,loc,2,24,12,1,2,1,1,TRUE,380.4,,right,green
225,25,psych,loc,2,25,44,4,4,3,3,TRUE,380.4,,right,green
225,26,psych,loc,2,26,14,1,4,4,4,TRUE,380.4,,right,green
225,27,psych,loc,2,27,43,4,3,3,3,TRUE,43.8,,right,green
225,28,psych,loc,2,28,22,2,2,2,3,FALSE,43.8,,right,green
225,29,psych,loc,2,29,24,2,4,3,3,TRUE,443.8,,right,green
225,30,psych,loc,2,30,41,4,1,1,1,TRUE,443.8,,right,green
225,31,psych,loc,2,31,31,3,1,2,2,TRUE,443.8,,right,green
225,32,psych,loc,2,32,13,1,3,4,4,TRUE,107.2,,right,green
225,33,psych,loc,3,33,22,2,2,1,1,TRUE,107.2,,right,green
225,34,psych,loc,3,34,13,1,3,3,3,TRUE,107.2,,right,green
225,35,psych,loc,3,35,23,2,3,1,4,FALSE,107.2,,right,green
225,36,psych,loc,3,36,44,4,4,4,4,TRUE,507.2,,right,green
225,37,psych,loc,3,37,43,4,3,2,2,TRUE,170.6,,right,green
225,38,psych,loc,3,38,31,3,1,2,2,TRUE,170.6,,right,green
225,39,psych,loc,3,39,12,1,2,4,4,TRUE,170.6,,right,green
225,40,psych,loc,3,40,34,3,4,3,3,TRUE,170.6,,right,green
225,41,psych,loc,3,41,41,4,1,1,1,TRUE,,,right,green
225,42,psych,loc,3,42,42,4,2,3,3,TRUE,,,right,green
225,43,psych,loc,3,43,33,3,3,4,4,TRUE,,,right,green
225,44,psych,loc,3,44,11,1,1,3,3,TRUE,,,right,green
225,45,psych,loc,3,45,14,1,4,4,4,TRUE,,,right,green
225,46,psych,loc,3,46,24,2,4,3,3,TRUE,,,right,green
225,47,psych,loc,3,47,21,2,1,4,4,TRUE,,,right,green
225,48,psych,loc,3,48,32,3,2,1,1,TRUE,,,right,green
225,49,train,loc,1,1,32,3,2,3,3,TRUE,,7194,right,green
225,50,train,loc,1,2,23,2,3,0,2,FALSE,,4088,right,green
225,51,train,loc,1,3,14,1,4,1,1,TRUE,,1281,right,green
225,52,train,loc,1,4,34,3,4,0,0,TRUE,,2528,right,green
225,53,train,loc,1,5,41,4,1,0,2,FALSE,,2029,right,green
225,54,train,loc,1,6,12,1,2,0,0,TRUE,,2686,right,green
225,55,train,loc,1,7,21,2,1,2,4,FALSE,,3429,right,green
225,56,train,loc,1,8,43,4,3,4,3,FALSE,,2104,right,green
225,57,train,loc,2,9,32,3,2,3,3,TRUE,,5037,right,green
225,58,train,loc,2,10,23,2,3,0,4,FALSE,,6586,right,green
225,59,train,loc,2,11,21,2,1,2,2,TRUE,,2494,right,green
225,60,train,loc,2,12,34,3,4,0,0,TRUE,,3021,right,green
225,61,train,loc,2,13,14,1,4,1,1,TRUE,,967,right,green
225,62,train,loc,2,14,43,4,3,4,4,TRUE,,2926,right,green
225,63,train,loc,2,15,12,1,2,0,0,TRUE,,6496,right,green
225,64,train,loc,2,16,41,4,1,0,0,TRUE,,3616,right,green
225,65,train,loc,3,17,43,4,3,4,4,TRUE,,1597,right,green
225,66,train,loc,3,18,41,4,1,0,0,TRUE,,1751,right,green
225,67,train,loc,3,19,14,1,4,1,1,TRUE,,2493,right,green
225,68,train,loc,3,20,32,3,2,3,3,TRUE,,1379,right,green
225,69,train,loc,3,21,21,2,1,2,2,TRUE,,1370,right,green
225,70,train,loc,3,22,12,1,2,0,0,TRUE,,1221,right,green
225,71,train,loc,3,23,23,2,3,0,0,TRUE,,2297,right,green
225,72,train,loc,3,24,34,3,4,0,0,TRUE,,1785,right,green
225,73,train,loc,4,25,14,1,4,1,1,TRUE,,2057,right,green
225,74,train,loc,4,26,41,4,1,0,0,TRUE,,1779,right,green
225,75,train,loc,4,27,21,2,1,2,2,TRUE,,1728,right,green
225,76,train,loc,4,28,32,3,2,3,3,TRUE,,1729,right,green
225,77,train,loc,4,29,43,4,3,4,4,TRUE,,1266,right,green
225,78,train,loc,4,30,12,1,2,0,0,TRUE,,1355,right,green
225,79,train,loc,4,31,34,3,4,0,0,TRUE,,1440,right,green
225,80,train,loc,4,32,23,2,3,0,0,TRUE,,1713,right,green
225,81,train,loc,5,33,21,2,1,2,2,TRUE,,3273,right,green
225,82,train,loc,5,34,14,1,4,1,1,TRUE,,1377,right,green
225,83,train,loc,5,35,23,2,3,0,0,TRUE,,8050,right,green
225,84,train,loc,5,36,41,4,1,0,0,TRUE,,3555,right,green
225,85,train,loc,5,37,43,4,3,4,4,TRUE,,2603,right,green
225,86,train,loc,5,38,32,3,2,3,3,TRUE,,1679,right,green
225,87,train,loc,5,39,34,3,4,0,0,TRUE,,2144,right,green
225,88,train,loc,5,40,12,1,2,0,0,TRUE,,1431,right,green
225,89,train,crit,1,1,32,3,2,12,-1,FALSE,,-1,right,green
225,90,train,crit,1,2,43,4,3,22,7,FALSE,,944,right,green
225,91,train,crit,1,3,14,1,4,9,24,FALSE,,1029,right,green
225,92,train,crit,1,4,21,2,1,5,11,FALSE,,1076,right,green
225,93,train,crit,2,5,21,2,1,5,5,TRUE,,1070,right,green
225,94,train,crit,2,6,43,4,3,22,10,FALSE,,1279,right,green
225,95,train,crit,2,7,32,3,2,12,22,FALSE,,1067,right,green
225,96,train,crit,2,8,14,1,4,9,7,FALSE,,1096,right,green
225,97,train,crit,3,9,21,2,1,5,5,TRUE,,1216,right,green
225,98,train,crit,3,10,43,4,3,22,22,TRUE,,1039,right,green
225,99,train,crit,3,11,32,3,2,12,12,TRUE,,873,right,green
225,100,train,crit,3,12,14,1,4,9,9,TRUE,,635,right,green
225,101,train,crit,4,13,14,1,4,9,9,TRUE,,806,right,green
225,102,train,crit,4,14,21,2,1,5,5,TRUE,,974,right,green
225,103,train,crit,4,15,43,4,3,22,22,TRUE,,920,right,green
225,104,train,crit,4,16,32,3,2,12,12,TRUE,,1787,right,green
225,105,train,crit,5,17,32,3,2,12,12,TRUE,,885,right,green
225,106,train,crit,5,18,43,4,3,22,22,TRUE,,1239,right,green
225,107,train,crit,5,19,14,1,4,9,9,TRUE,,568,right,green
225,108,train,crit,5,20,21,2,1,5,5,TRUE,,606,right,green
225,109,test,crit,1,1,23,2,3,12,10,FALSE,352.9,1475,right,green
225,110,test,crit,1,2,21,2,1,5,5,TRUE,352.9,1348,right,green
225,111,test,crit,1,3,22,2,2,9,12,FALSE,352.9,1082,right,green
225,112,test,crit,1,4,42,4,2,15,13,FALSE,352.9,1313,right,green
225,113,test,crit,1,5,44,4,4,29,30,FALSE,352.9,829,right,green
225,114,test,crit,1,6,24,2,4,15,18,FALSE,352.9,1264,right,green
225,115,test,crit,1,7,12,1,2,5,9,FALSE,352.9,1220,right,green
225,116,test,crit,1,8,43,4,3,22,22,TRUE,352.9,1086,right,green
225,117,test,crit,1,9,14,1,4,9,9,TRUE,352.9,1411,right,green
225,118,test,crit,1,10,34,3,4,22,23,FALSE,352.9,1626,right,green
225,119,test,crit,1,11,32,3,2,12,5,FALSE,352.9,1313,right,green
225,120,test,crit,1,12,13,1,3,7,8,FALSE,352.9,1251,right,green
225,121,test,crit,1,13,41,4,1,9,22,FALSE,352.9,924,right,green
225,122,test,crit,1,14,33,3,3,17,20,FALSE,352.9,1047,right,green
225,123,test,crit,1,15,11,1,1,4,4,TRUE,352.9,1339,right,green
225,124,test,crit,1,16,31,3,1,7,5,FALSE,352.9,882,right,green
225,125,test,crit,2,17,42,4,2,15,12,FALSE,352.9,825,right,green
225,126,test,crit,2,18,13,1,3,7,12,FALSE,352.9,536,right,green
225,127,test,crit,2,19,21,2,1,5,5,TRUE,352.9,1310,right,green
225,128,test,crit,2,20,14,1,4,9,5,FALSE,352.9,643,right,green
225,129,test,crit,2,21,12,1,2,5,6,FALSE,352.9,917,right,green
225,130,test,crit,2,22,31,3,1,7,-1,FALSE,352.9,-1,right,green
225,131,test,crit,2,23,23,2,3,12,12,TRUE,352.9,963,right,green
225,132,test,crit,2,24,11,1,1,4,2,FALSE,352.9,1197,right,green
225,133,test,crit,2,25,33,3,3,17,15,FALSE,352.9,1899,right,green
225,134,test,crit,2,26,43,4,3,22,22,TRUE,352.9,1152,right,green
225,135,test,crit,2,27,34,3,4,22,22,TRUE,352.9,770,right,green
225,136,test,crit,2,28,41,4,1,9,14,FALSE,352.9,1215,right,green
225,137,test,crit,2,29,44,4,4,29,30,FALSE,352.9,315,right,green
225,138,test,crit,2,30,32,3,2,12,12,TRUE,352.9,774,right,green
225,139,test,crit,2,31,22,2,2,9,9,TRUE,352.9,1325,right,green
225,140,test,crit,2,32,24,2,4,15,14,FALSE,352.9,850,right,green
225,141,test,crit,3,33,34,3,4,22,22,TRUE,352.9,1217,right,green
225,142,test,crit,3,34,42,4,2,15,18,FALSE,352.9,702,right,green
225,143,test,crit,3,35,23,2,3,12,16,FALSE,352.9,1540,right,green
225,144,test,crit,3,36,43,4,3,22,22,TRUE,352.9,1188,right,green
225,145,test,crit,3,37,41,4,1,9,9,TRUE,352.9,965,right,green
225,146,test,crit,3,38,21,2,1,5,5,TRUE,352.9,743,right,green
225,147,test,crit,3,39,22,2,2,9,17,FALSE,352.9,992,right,green
225,148,test,crit,3,40,11,1,1,4,4,TRUE,352.9,1135,right,green
225,149,test,crit,3,41,14,1,4,9,12,FALSE,352.9,1418,right,green
225,150,test,crit,3,42,13,1,3,7,8,FALSE,352.9,1712,right,green
225,151,test,crit,3,43,24,2,4,15,12,FALSE,352.9,980,right,green
225,152,test,crit,3,44,12,1,2,5,9,FALSE,352.9,1193,right,green
225,153,test,crit,3,45,31,3,1,7,9,FALSE,352.9,1016,right,green
225,154,test,crit,3,46,32,3,2,12,12,TRUE,352.9,876,right,green
225,155,test,crit,3,47,44,4,4,29,30,FALSE,352.9,788,right,green
225,156,test,crit,3,48,33,3,3,17,18,FALSE,352.9,1430,right,green
225,157,test,crit,4,49,21,2,1,5,5,TRUE,352.9,994,right,green
225,158,test,crit,4,50,12,1,2,5,5,TRUE,352.9,712,right,green
225,159,test,crit,4,51,11,1,1,4,4,TRUE,352.9,863,right,green
225,160,test,crit,4,52,42,4,2,15,18,FALSE,352.9,731,right,green
225,161,test,crit,4,53,43,4,3,22,22,TRUE,352.9,1229,right,green
225,162,test,crit,4,54,23,2,3,12,18,FALSE,352.9,742,right,green
225,163,test,crit,4,55,44,4,4,29,30,FALSE,352.9,742,right,green
225,164,test,crit,4,56,34,3,4,22,22,TRUE,352.9,630,right,green
225,165,test,crit,4,57,14,1,4,9,9,TRUE,352.9,782,right,green
225,166,test,crit,4,58,32,3,2,12,12,TRUE,352.9,710,right,green
225,167,test,crit,4,59,41,4,1,9,12,FALSE,352.9,845,right,green
225,168,test,crit,4,60,13,1,3,7,8,FALSE,352.9,1265,right,green
225,169,test,crit,4,61,33,3,3,17,18,FALSE,352.9,1826,right,green
225,170,test,crit,4,62,24,2,4,15,13,FALSE,352.9,1407,right,green
225,171,test,crit,4,63,31,3,1,7,10,FALSE,352.9,1452,right,green
225,172,test,crit,4,64,22,2,2,9,8,FALSE,352.9,1258,right,green
225,173,test,crit,5,65,32,3,2,12,12,TRUE,352.9,770,right,green
225,174,test,crit,5,66,22,2,2,9,10,FALSE,352.9,1135,right,green
225,175,test,crit,5,67,43,4,3,22,22,TRUE,352.9,1014,right,green
225,176,test,crit,5,68,34,3,4,22,22,TRUE,352.9,1987,right,green
225,177,test,crit,5,69,44,4,4,29,30,FALSE,352.9,741,right,green
225,178,test,crit,5,70,33,3,3,17,18,FALSE,352.9,542,right,green
225,179,test,crit,5,71,21,2,1,5,5,TRUE,352.9,581,right,green
225,180,test,crit,5,72,23,2,3,12,8,FALSE,352.9,1595,right,green
225,181,test,crit,5,73,24,2,4,15,12,FALSE,352.9,781,right,green
225,182,test,crit,5,74,12,1,2,5,8,FALSE,352.9,1411,right,green
225,183,test,crit,5,75,11,1,1,4,4,TRUE,352.9,692,right,green
225,184,test,crit,5,76,14,1,4,9,9,TRUE,352.9,695,right,green
225,185,test,crit,5,77,41,4,1,9,9,TRUE,352.9,1127,right,green
225,186,test,crit,5,78,31,3,1,7,6,FALSE,352.9,854,right,green
225,187,test,crit,5,79,13,1,3,7,18,FALSE,352.9,1133,right,green
225,188,test,crit,5,80,42,4,2,15,18,FALSE,352.9,787,right,green
225,189,test,crit,6,81,44,4,4,29,30,FALSE,352.9,539,right,green
225,190,test,crit,6,82,22,2,2,9,8,FALSE,352.9,1093,right,green
225,191,test,crit,6,83,32,3,2,12,12,TRUE,352.9,787,right,green
225,192,test,crit,6,84,24,2,4,15,12,FALSE,352.9,925,right,green
225,193,test,crit,6,85,21,2,1,5,5,TRUE,352.9,848,right,green
225,194,test,crit,6,86,11,1,1,4,-1,FALSE,352.9,-1,right,green
225,195,test,crit,6,87,13,1,3,7,10,FALSE,352.9,914,right,green
225,196,test,crit,6,88,41,4,1,9,15,FALSE,352.9,901,right,green
225,197,test,crit,6,89,43,4,3,22,22,TRUE,352.9,1006,right,green
225,198,test,crit,6,90,23,2,3,12,18,FALSE,352.9,985,right,green
225,199,test,crit,6,91,12,1,2,5,5,TRUE,352.9,847,right,green
225,200,test,crit,6,92,42,4,2,15,18,FALSE,352.9,732,right,green
225,201,test,crit,6,93,31,3,1,7,12,FALSE,352.9,1116,right,green
225,202,test,crit,6,94,34,3,4,22,22,TRUE,352.9,1920,right,green
225,203,test,crit,6,95,14,1,4,9,9,TRUE,352.9,951,right,green
225,204,test,crit,6,96,33,3,3,17,15,FALSE,352.9,1390,right,green
225,205,test,crit,7,97,14,1,4,9,9,TRUE,352.9,917,right,green
225,206,test,crit,7,98,11,1,1,4,2,FALSE,352.9,909,right,green
225,207,test,crit,7,99,33,3,3,17,15,FALSE,352.9,799,right,green
225,208,test,crit,7,100,43,4,3,22,22,TRUE,352.9,718,right,green
225,209,test,crit,7,101,32,3,2,12,10,FALSE,352.9,1139,right,green
225,210,test,crit,7,102,44,4,4,29,30,FALSE,352.9,813,right,green
225,211,test,crit,7,103,21,2,1,5,5,TRUE,352.9,1118,right,green
225,212,test,crit,7,104,31,3,1,7,-1,FALSE,352.9,-1,right,green
225,213,test,crit,7,105,24,2,4,15,12,FALSE,352.9,960,right,green
225,214,test,crit,7,106,22,2,2,9,12,FALSE,352.9,569,right,green
225,215,test,crit,7,107,13,1,3,7,7,TRUE,352.9,1117,right,green
225,216,test,crit,7,108,12,1,2,5,5,TRUE,352.9,1779,right,green
225,217,test,crit,7,109,42,4,2,15,16,FALSE,352.9,1157,right,green
225,218,test,crit,7,110,41,4,1,9,16,FALSE,352.9,1869,right,green
225,219,test,crit,7,111,34,3,4,22,22,TRUE,352.9,721,right,green
225,220,test,crit,7,112,23,2,3,12,16,FALSE,352.9,929,right,green
225,221,test,crit,8,113,41,4,1,9,15,FALSE,352.9,1155,right,green
225,222,test,crit,8,114,44,4,4,29,30,FALSE,352.9,813,right,green
225,223,test,crit,8,115,21,2,1,5,5,TRUE,352.9,797,right,green
225,224,test,crit,8,116,43,4,3,22,22,TRUE,352.9,658,right,green
225,225,test,crit,8,117,24,2,4,15,12,FALSE,352.9,906,right,green
225,226,test,crit,8,118,42,4,2,15,13,FALSE,352.9,1360,right,green
225,227,test,crit,8,119,33,3,3,17,15,FALSE,352.9,708,right,green
225,228,test,crit,8,120,11,1,1,4,1,FALSE,352.9,805,right,green
225,229,test,crit,8,121,31,3,1,7,8,FALSE,352.9,770,right,green
225,230,test,crit,8,122,13,1,3,7,8,FALSE,352.9,979,right,green
225,231,test,crit,8,123,22,2,2,9,7,FALSE,352.9,1357,right,green
225,232,test,crit,8,124,23,2,3,12,12,TRUE,352.9,1343,right,green
225,233,test,crit,8,125,12,1,2,5,4,FALSE,352.9,1648,right,green
225,234,test,crit,8,126,14,1,4,9,8,FALSE,352.9,971,right,green
225,235,test,crit,8,127,34,3,4,22,22,TRUE,352.9,835,right,green
225,236,test,crit,8,128,32,3,2,12,12,TRUE,352.9,670,right,green
225,237,test,loc,1,1,34,3,4,0,0,TRUE,,2982,right,green
225,238,test,loc,1,2,14,1,4,1,1,TRUE,,2357,right,green
225,239,test,loc,1,3,21,2,1,2,2,TRUE,,4057,right,green
225,240,test,loc,1,4,12,1,2,0,0,TRUE,,1751,right,green
225,241,test,loc,1,5,23,2,3,0,0,TRUE,,1646,right,green
225,242,test,loc,1,6,43,4,3,4,4,TRUE,,1286,right,green
225,243,test,loc,1,7,41,4,1,0,0,TRUE,,2075,right,green
225,244,test,loc,1,8,32,3,2,3,3,TRUE,,1071,right,green
226,1,psych,loc,1,1,43,4,3,1,1,TRUE,2000,,right,green
226,2,psych,loc,1,2,44,4,4,1,1,TRUE,1663.4,,right,green
226,3,psych,loc,1,3,24,2,4,1,1,TRUE,1663.4,,right,green
226,4,psych,loc,1,4,11,1,1,4,4,TRUE,1663.4,,right,green
226,5,psych,loc,1,5,22,2,2,1,1,TRUE,1663.4,,right,green
226,6,psych,loc,1,6,14,1,4,3,3,TRUE,1326.8,,right,green
226,7,psych,loc,1,7,42,4,2,3,3,TRUE,1326.8,,right,green
226,8,psych,loc,1,8,31,3,1,1,1,TRUE,1326.8,,right,green
226,9,psych,loc,1,9,32,3,2,4,4,TRUE,1326.8,,right,green
226,10,psych,loc,1,10,23,2,3,2,2,TRUE,990.2,,right,green
226,11,psych,loc,1,11,21,2,1,3,3,TRUE,990.2,,right,green
226,12,psych,loc,1,12,33,3,3,1,1,TRUE,990.2,,right,green
226,13,psych,loc,1,13,34,3,4,3,3,TRUE,990.2,,right,green
226,14,psych,loc,1,14,13,1,3,3,3,TRUE,653.6,,right,green
226,15,psych,loc,1,15,12,1,2,1,1,TRUE,653.6,,right,green
226,16,psych,loc,1,16,41,4,1,4,4,TRUE,653.6,,right,green
226,17,psych,loc,2,17,23,2,3,4,4,TRUE,653.6,,right,green
226,18,psych,loc,2,18,44,4,4,1,3,FALSE,317,,right,green
226,19,psych,loc,2,19,12,1,2,1,1,TRUE,717,,right,green
226,20,psych,loc,2,20,43,4,3,4,4,TRUE,717,,right,green
226,21,psych,loc,2,21,41,4,1,4,4,TRUE,717,,right,green
226,22,psych,loc,2,22,13,1,3,4,4,TRUE,717,,right,green
226,23,psych,loc,2,23,24,2,4,3,3,TRUE,380.4,,right,green
226,24,psych,loc,2,24,32,3,2,4,4,TRUE,380.4,,right,green
226,25,psych,loc,2,25,11,1,1,4,4,TRUE,380.4,,right,green
226,26,psych,loc,2,26,34,3,4,2,2,TRUE,380.4,,right,green
226,27,psych,loc,2,27,21,2,1,1,1,TRUE,43.8,,right,green
226,28,psych,loc,2,28,22,2,2,4,4,TRUE,43.8,,right,green
226,29,psych,loc,2,29,42,4,2,2,1,FALSE,43.8,,right,green
226,30,psych,loc,2,30,33,3,3,3,3,TRUE,443.8,,right,green
226,31,psych,loc,2,31,14,1,4,4,4,TRUE,443.8,,right,green
226,32,psych,loc,2,32,31,3,1,2,2,TRUE,107.2,,right,green
226,33,psych,loc,3,33,23,2,3,4,3,FALSE,107.2,,right,green
226,34,psych,loc,3,34,13,1,3,2,2,TRUE,507.2,,right,green
226,35,psych,loc,3,35,22,2,2,2,2,TRUE,507.2,,right,green
226,36,psych,loc,3,36,32,3,2,2,2,TRUE,507.2,,right,green
226,37,psych,loc,3,37,14,1,4,3,2,FALSE,170.6,,right,green
226,38,psych,loc,3,38,33,3,3,1,1,TRUE,570.6,,right,green
226,39,psych,loc,3,39,24,2,4,3,3,TRUE,570.6,,right,green
226,40,psych,loc,3,40,43,4,3,2,2,TRUE,570.6,,right,green
226,41,psych,loc,3,41,31,3,1,3,3,TRUE,570.6,,right,green
226,42,psych,loc,3,42,34,3,4,2,2,TRUE,234,,right,green
226,43,psych,loc,3,43,42,4,2,4,4,TRUE,234,,right,green
226,44,psych,loc,3,44,44,4,4,1,1,TRUE,234,,right,green
226,45,psych,loc,3,45,11,1,1,4,4,TRUE,234,,right,green
226,46,psych,loc,3,46,21,2,1,3,3,TRUE,,,right,green
226,47,psych,loc,3,47,41,4,1,4,3,FALSE,,,right,green
226,48,psych,loc,3,48,12,1,2,3,3,TRUE,297.4,,right,green
226,49,train,loc,1,1,12,1,2,0,0,TRUE,,13037,right,green
226,50,train,loc,1,2,43,4,3,3,0,FALSE,,15090,right,green
226,51,train,loc,1,3,34,3,4,0,0,TRUE,,12963,right,green
226,52,train,loc,1,4,23,2,3,0,3,FALSE,,4464,right,green
226,53,train,loc,1,5,14,1,4,1,1,TRUE,,4202,right,green
226,54,train,loc,1,6,32,3,2,4,4,TRUE,,3000,right,green
226,55,train,loc,1,7,21,2,1,2,2,TRUE,,8735,right,green
226,56,train,loc,1,8,41,4,1,0,0,TRUE,,8048,right,green
226,57,train,loc,2,9,43,4,3,3,3,TRUE,,3268,right,green
226,58,train,loc,2,10,23,2,3,0,0,TRUE,,5447,right,green
226,59,train,loc,2,11,32,3,2,4,4,TRUE,,3202,right,green
226,60,train,loc,2,12,21,2,1,2,2,TRUE,,2529,right,green
226,61,train,loc,2,13,34,3,4,0,0,TRUE,,6634,right,green
226,62,train,loc,2,14,12,1,2,0,0,TRUE,,4941,right,green
226,63,train,loc,2,15,14,1,4,1,1,TRUE,,2571,right,green
226,64,train,loc,2,16,41,4,1,0,0,TRUE,,4515,right,green
226,65,train,loc,3,17,23,2,3,0,0,TRUE,,7357,right,green
226,66,train,loc,3,18,43,4,3,3,3,TRUE,,2790,right,green
226,67,train,loc,3,19,21,2,1,2,2,TRUE,,3033,right,green
226,68,train,loc,3,20,14,1,4,1,1,TRUE,,1713,right,green
226,69,train,loc,3,21,41,4,1,0,0,TRUE,,6791,right,green
226,70,train,loc,3,22,34,3,4,0,0,TRUE,,3268,right,green
226,71,train,loc,3,23,12,1,2,0,0,TRUE,,2383,right,green
226,72,train,loc,3,24,32,3,2,4,4,TRUE,,3299,right,green
226,73,train,loc,4,25,32,3,2,4,4,TRUE,,1575,right,green
226,74,train,loc,4,26,43,4,3,3,3,TRUE,,1469,right,green
226,75,train,loc,4,27,12,1,2,0,0,TRUE,,1923,right,green
226,76,train,loc,4,28,21,2,1,2,2,TRUE,,2290,right,green
226,77,train,loc,4,29,34,3,4,0,0,TRUE,,3034,right,green
226,78,train,loc,4,30,23,2,3,0,0,TRUE,,3847,right,green
226,79,train,loc,4,31,41,4,1,0,0,TRUE,,10319,right,green
226,80,train,loc,4,32,14,1,4,1,1,TRUE,,1403,right,green
226,81,train,crit,1,1,21,2,1,5,-1,FALSE,,-1,right,green
226,82,train,crit,1,2,43,4,3,22,27,FALSE,,1061,right,green
226,83,train,crit,1,3,14,1,4,9,16,FALSE,,1039,right,green
226,84,train,crit,1,4,32,3,2,12,18,FALSE,,981,right,green
226,85,train,crit,2,5,32,3,2,12,11,FALSE,,1070,right,green
226,86,train,crit,2,6,21,2,1,5,8,FALSE,,1179,right,green
226,87,train,crit,2,7,43,4,3,22,7,FALSE,,1217,right,green
226,88,train,crit,2,8,14,1,4,9,17,FALSE,,880,right,green
226,89,train,crit,3,9,21,2,1,5,5,TRUE,,1169,right,green
226,90,train,crit,3,10,14,1,4,9,12,FALSE,,1178,right,green
226,91,train,crit,3,11,32,3,2,12,12,TRUE,,1718,right,green
226,92,train,crit,3,12,43,4,3,22,22,TRUE,,1453,right,green
226,93,train,crit,4,13,32,3,2,12,12,TRUE,,1390,right,green
226,94,train,crit,4,14,14,1,4,9,5,FALSE,,1663,right,green
226,95,train,crit,4,15,21,2,1,5,5,TRUE,,1087,right,green
226,96,train,crit,4,16,43,4,3,22,22,TRUE,,1182,right,green
226,97,train,crit,5,17,32,3,2,12,12,TRUE,,1041,right,green
226,98,train,crit,5,18,43,4,3,22,22,TRUE,,1285,right,green
226,99,train,crit,5,19,21,2,1,5,5,TRUE,,416,right,green
226,100,train,crit,5,20,14,1,4,9,-1,FALSE,,-1,right,green
226,101,train,crit,6,21,32,3,2,12,12,TRUE,,984,right,green
226,102,train,crit,6,22,21,2,1,5,5,TRUE,,1301,right,green
226,103,train,crit,6,23,14,1,4,9,9,TRUE,,1772,right,green
226,104,train,crit,6,24,43,4,3,22,22,TRUE,,1391,right,green
226,105,train,crit,7,25,43,4,3,22,22,TRUE,,1407,right,green
226,106,train,crit,7,26,21,2,1,5,5,TRUE,,1002,right,green
226,107,train,crit,7,27,32,3,2,12,12,TRUE,,968,right,green
226,108,train,crit,7,28,14,1,4,9,9,TRUE,,858,right,green
226,109,train,crit,8,29,43,4,3,22,-1,FALSE,,-1,right,green
226,110,train,crit,8,30,32,3,2,12,9,FALSE,,1393,right,green
226,111,train,crit,8,31,14,1,4,9,-1,FALSE,,-1,right,green
226,112,train,crit,8,32,21,2,1,5,5,TRUE,,1244,right,green
226,113,train,crit,9,33,43,4,3,22,22,TRUE,,1074,right,green
226,114,train,crit,9,34,32,3,2,12,12,TRUE,,985,right,green
226,115,train,crit,9,35,21,2,1,5,5,TRUE,,1062,right,green
226,116,train,crit,9,36,14,1,4,9,9,TRUE,,957,right,green
226,117,test,crit,1,1,41,4,1,9,9,TRUE,450.64,1404,right,green
226,118,test,crit,1,2,22,2,2,9,7,FALSE,450.64,1211,right,green
226,119,test,crit,1,3,13,1,3,7,6,FALSE,450.64,920,right,green
226,120,test,crit,1,4,44,4,4,29,25,FALSE,450.64,1054,right,green
226,121,test,crit,1,5,34,3,4,22,22,TRUE,450.64,1016,right,green
226,122,test,crit,1,6,43,4,3,22,22,TRUE,450.64,971,right,green
226,123,test,crit,1,7,24,2,4,15,17,FALSE,450.64,1047,right,green
226,124,test,crit,1,8,12,1,2,5,5,TRUE,450.64,1482,right,green
226,125,test,crit,1,9,32,3,2,12,9,FALSE,450.64,1582,right,green
226,126,test,crit,1,10,21,2,1,5,5,TRUE,450.64,741,right,green
226,127,test,crit,1,11,31,3,1,7,9,FALSE,450.64,785,right,green
226,128,test,crit,1,12,11,1,1,4,3,FALSE,450.64,1141,right,green
226,129,test,crit,1,13,42,4,2,15,15,TRUE,450.64,1147,right,green
226,130,test,crit,1,14,33,3,3,17,19,FALSE,450.64,1526,right,green
226,131,test,crit,1,15,23,2,3,12,12,TRUE,450.64,806,right,green
226,132,test,crit,1,16,14,1,4,9,12,FALSE,450.64,859,right,green
226,133,test,crit,2,17,14,1,4,9,12,FALSE,450.64,575,right,green
226,134,test,crit,2,18,41,4,1,9,12,FALSE,450.64,1125,right,green
226,135,test,crit,2,19,33,3,3,17,15,FALSE,450.64,810,right,green
226,136,test,crit,2,20,31,3,1,7,9,FALSE,450.64,1002,right,green
226,137,test,crit,2,21,11,1,1,4,3,FALSE,450.64,868,right,green
226,138,test,crit,2,22,23,2,3,12,8,FALSE,450.64,854,right,green
226,139,test,crit,2,23,13,1,3,7,8,FALSE,450.64,1062,right,green
226,140,test,crit,2,24,43,4,3,22,22,TRUE,450.64,1074,right,green
226,141,test,crit,2,25,44,4,4,29,28,FALSE,450.64,906,right,green
226,142,test,crit,2,26,24,2,4,15,15,TRUE,450.64,1194,right,green
226,143,test,crit,2,27,21,2,1,5,5,TRUE,450.64,859,right,green
226,144,test,crit,2,28,32,3,2,12,12,TRUE,450.64,1956,right,green
226,145,test,crit,2,29,22,2,2,9,5,FALSE,450.64,1170,right,green
226,146,test,crit,2,30,42,4,2,15,20,FALSE,450.64,1734,right,green
226,147,test,crit,2,31,12,1,2,5,5,TRUE,450.64,757,right,green
226,148,test,crit,2,32,34,3,4,22,22,TRUE,450.64,1180,right,green
226,149,test,crit,3,33,44,4,4,29,25,FALSE,450.64,899,right,green
226,150,test,crit,3,34,43,4,3,22,22,TRUE,450.64,928,right,green
226,151,test,crit,3,35,23,2,3,12,12,TRUE,450.64,1187,right,green
226,152,test,crit,3,36,12,1,2,5,5,TRUE,450.64,905,right,green
226,153,test,crit,3,37,33,3,3,17,17,TRUE,450.64,1042,right,green
226,154,test,crit,3,38,11,1,1,4,3,FALSE,450.64,1018,right,green
226,155,test,crit,3,39,14,1,4,9,12,FALSE,450.64,954,right,green
226,156,test,crit,3,40,21,2,1,5,5,TRUE,450.64,811,right,green
226,157,test,crit,3,41,34,3,4,22,22,TRUE,450.64,1136,right,green
226,158,test,crit,3,42,31,3,1,7,7,TRUE,450.64,1097,right,green
226,159,test,crit,3,43,22,2,2,9,13,FALSE,450.64,734,right,green
226,160,test,crit,3,44,13,1,3,7,9,FALSE,450.64,797,right,green
226,161,test,crit,3,45,32,3,2,12,9,FALSE,450.64,1063,right,green
226,162,test,crit,3,46,42,4,2,15,13,FALSE,450.64,970,right,green
226,163,test,crit,3,47,41,4,1,9,12,FALSE,450.64,773,right,green
226,164,test,crit,3,48,24,2,4,15,13,FALSE,450.64,1090,right,green
226,165,test,crit,4,49,44,4,4,29,25,FALSE,450.64,900,right,green
226,166,test,crit,4,50,12,1,2,5,5,TRUE,450.64,823,right,green
226,167,test,crit,4,51,24,2,4,15,13,FALSE,450.64,1371,right,green
226,168,test,crit,4,52,42,4,2,15,12,FALSE,450.64,929,right,green
226,169,test,crit,4,53,11,1,1,4,3,FALSE,450.64,973,right,green
226,170,test,crit,4,54,21,2,1,5,5,TRUE,450.64,1066,right,green
226,171,test,crit,4,55,33,3,3,17,17,TRUE,450.64,1080,right,green
226,172,test,crit,4,56,22,2,2,9,7,FALSE,450.64,852,right,green
226,173,test,crit,4,57,34,3,4,22,22,TRUE,450.64,960,right,green
226,174,test,crit,4,58,31,3,1,7,9,FALSE,450.64,775,right,green
226,175,test,crit,4,59,41,4,1,9,10,FALSE,450.64,1146,right,green
226,176,test,crit,4,60,43,4,3,22,22,TRUE,450.64,983,right,green
226,177,test,crit,4,61,13,1,3,7,9,FALSE,450.64,1319,right,green
226,178,test,crit,4,62,14,1,4,9,14,FALSE,450.64,1155,right,green
226,179,test,crit,4,63,32,3,2,12,9,FALSE,450.64,722,right,green
226,180,test,crit,4,64,23,2,3,12,14,FALSE,450.64,1066,right,green
226,181,test,crit,5,65,24,2,4,15,10,FALSE,450.64,1728,right,green
226,182,test,crit,5,66,23,2,3,12,9,FALSE,450.64,915,right,green
226,183,test,crit,5,67,21,2,1,5,5,TRUE,450.64,698,right,green
226,184,test,crit,5,68,33,3,3,17,14,FALSE,450.64,1141,right,green
226,185,test,crit,5,69,41,4,1,9,9,TRUE,450.64,765,right,green
226,186,test,crit,5,70,44,4,4,29,25,FALSE,450.64,1079,right,green
226,187,test,crit,5,71,34,3,4,22,22,TRUE,450.64,1243,right,green
226,188,test,crit,5,72,43,4,3,22,22,TRUE,450.64,658,right,green
226,189,test,crit,5,73,22,2,2,9,9,TRUE,450.64,709,right,green
226,190,test,crit,5,74,12,1,2,5,5,TRUE,450.64,763,right,green
226,191,test,crit,5,75,32,3,2,12,10,FALSE,450.64,770,right,green
226,192,test,crit,5,76,42,4,2,15,13,FALSE,450.64,966,right,green
226,193,test,crit,5,77,31,3,1,7,9,FALSE,450.64,903,right,green
226,194,test,crit,5,78,14,1,4,9,9,TRUE,450.64,1763,right,green
226,195,test,crit,5,79,13,1,3,7,8,FALSE,450.64,1090,right,green
226,196,test,crit,5,80,11,1,1,4,3,FALSE,450.64,623,right,green
226,197,test,crit,6,81,21,2,1,5,5,TRUE,450.64,771,right,green
226,198,test,crit,6,82,11,1,1,4,3,FALSE,450.64,781,right,green
226,199,test,crit,6,83,14,1,4,9,9,TRUE,450.64,1158,right,green
226,200,test,crit,6,84,34,3,4,22,22,TRUE,450.64,930,right,green
226,201,test,crit,6,85,23,2,3,12,12,TRUE,450.64,1454,right,green
226,202,test,crit,6,86,41,4,1,9,12,FALSE,450.64,695,right,green
226,203,test,crit,6,87,13,1,3,7,9,FALSE,450.64,640,right,green
226,204,test,crit,6,88,33,3,3,17,16,FALSE,450.64,1625,right,green
226,205,test,crit,6,89,42,4,2,15,17,FALSE,450.64,1496,right,green
226,206,test,crit,6,90,44,4,4,29,25,FALSE,450.64,971,right,green
226,207,test,crit,6,91,12,1,2,5,5,TRUE,450.64,907,right,green
226,208,test,crit,6,92,43,4,3,22,22,TRUE,450.64,1008,right,green
226,209,test,crit,6,93,31,3,1,7,9,FALSE,450.64,863,right,green
226,210,test,crit,6,94,32,3,2,12,12,TRUE,450.64,1095,right,green
226,211,test,crit,6,95,24,2,4,15,12,FALSE,450.64,1739,right,green
226,212,test,crit,6,96,22,2,2,9,7,FALSE,450.64,875,right,green
226,213,test,crit,7,97,43,4,3,22,22,TRUE,450.64,781,right,green
226,214,test,crit,7,98,31,3,1,7,9,FALSE,450.64,960,right,green
226,215,test,crit,7,99,41,4,1,9,12,FALSE,450.64,1297,right,green
226,216,test,crit,7,100,23,2,3,12,12,TRUE,450.64,1067,right,green
226,217,test,crit,7,101,21,2,1,5,5,TRUE,450.64,855,right,green
226,218,test,crit,7,102,24,2,4,15,12,FALSE,450.64,757,right,green
226,219,test,crit,7,103,12,1,2,5,5,TRUE,450.64,1059,right,green
226,220,test,crit,7,104,13,1,3,7,9,FALSE,450.64,907,right,green
226,221,test,crit,7,105,42,4,2,15,12,FALSE,450.64,1287,right,green
226,222,test,crit,7,106,34,3,4,22,22,TRUE,450.64,953,right,green
226,223,test,crit,7,107,14,1,4,9,12,FALSE,450.64,829,right,green
226,224,test,crit,7,108,33,3,3,17,14,FALSE,450.64,947,right,green
226,225,test,crit,7,109,22,2,2,9,9,TRUE,450.64,1102,right,green
226,226,test,crit,7,110,32,3,2,12,12,TRUE,450.64,690,right,green
226,227,test,crit,7,111,11,1,1,4,3,FALSE,450.64,896,right,green
226,228,test,crit,7,112,44,4,4,29,25,FALSE,450.64,1093,right,green
226,229,test,crit,8,113,13,1,3,7,12,FALSE,450.64,1252,right,green
226,230,test,crit,8,114,14,1,4,9,9,TRUE,450.64,879,right,green
226,231,test,crit,8,115,22,2,2,9,7,FALSE,450.64,746,right,green
226,232,test,crit,8,116,41,4,1,9,9,TRUE,450.64,1131,right,green
226,233,test,crit,8,117,43,4,3,22,22,TRUE,450.64,1460,right,green
226,234,test,crit,8,118,32,3,2,12,12,TRUE,450.64,1245,right,green
226,235,test,crit,8,119,44,4,4,29,25,FALSE,450.64,1198,right,green
226,236,test,crit,8,120,42,4,2,15,12,FALSE,450.64,805,right,green
226,237,test,crit,8,121,34,3,4,22,22,TRUE,450.64,917,right,green
226,238,test,crit,8,122,31,3,1,7,9,FALSE,450.64,1228,right,green
226,239,test,crit,8,123,11,1,1,4,3,FALSE,450.64,623,right,green
226,240,test,crit,8,124,12,1,2,5,5,TRUE,450.64,690,right,green
226,241,test,crit,8,125,23,2,3,12,12,TRUE,450.64,1042,right,green
226,242,test,crit,8,126,33,3,3,17,14,FALSE,450.64,1075,right,green
226,243,test,crit,8,127,21,2,1,5,5,TRUE,450.64,928,right,green
226,244,test,crit,8,128,24,2,4,15,12,FALSE,450.64,850,right,green
226,245,test,loc,1,1,41,4,1,0,1,FALSE,,12474,right,green
226,246,test,loc,1,2,23,2,3,0,4,FALSE,,4465,right,green
226,247,test,loc,1,3,43,4,3,3,3,TRUE,,1242,right,green
226,248,test,loc,1,4,12,1,2,0,2,FALSE,,1603,right,green
226,249,test,loc,1,5,32,3,2,4,0,FALSE,,1845,right,green
226,250,test,loc,1,6,21,2,1,2,2,TRUE,,3337,right,green
226,251,test,loc,1,7,14,1,4,1,1,TRUE,,2627,right,green
226,252,test,loc,1,8,34,3,4,0,0,TRUE,,1930,right,green
228,1,psych,loc,1,1,12,1,2,4,4,TRUE,2000,,left,green
228,2,psych,loc,1,2,32,3,2,3,3,TRUE,1663.4,,left,green
228,3,psych,loc,1,3,33,3,3,2,2,TRUE,1663.4,,left,green
228,4,psych,loc,1,4,41,4,1,1,1,TRUE,1663.4,,left,green
228,5,psych,loc,1,5,21,2,1,4,4,TRUE,1663.4,,left,green
228,6,psych,loc,1,6,13,1,3,1,1,TRUE,1326.8,,left,green
228,7,psych,loc,1,7,44,4,4,4,4,TRUE,1326.8,,left,green
228,8,psych,loc,1,8,31,3,1,4,4,TRUE,1326.8,,left,green
228,9,psych,loc,1,9,14,1,4,3,3,TRUE,1326.8,,left,green
228,10,psych,loc,1,10,11,1,1,2,2,TRUE,990.2,,left,green
228,11,psych,loc,1,11,22,2,2,3,3,TRUE,990.2,,left,green
228,12,psych,loc,1,12,23,2,3,2,2,TRUE,990.2,,left,green
228,13,psych,loc,1,13,24,2,4,1,1,TRUE,990.2,,left,green
228,14,psych,loc,1,14,43,4,3,4,4,TRUE,653.6,,left,green
228,15,psych,loc,1,15,42,4,2,3,3,TRUE,653.6,,left,green
228,16,psych,loc,1,16,34,3,4,3,3,TRUE,653.6,,left,green
228,17,psych,loc,2,17,41,4,1,1,1,TRUE,653.6,,left,green
228,18,psych,loc,2,18,11,1,1,3,3,TRUE,317,,left,green
228,19,psych,loc,2,19,44,4,4,2,2,TRUE,317,,left,green
228,20,psych,loc,2,20,24,2,4,3,3,TRUE,317,,left,green
228,21,psych,loc,2,21,12,1,2,1,1,TRUE,317,,left,green
228,22,psych,loc,2,22,31,3,1,1,1,TRUE,,,left,green
228,23,psych,loc,2,23,32,3,2,3,3,TRUE,,,left,green
228,24,psych,loc,2,24,14,1,4,3,0,FALSE,,,left,green
228,25,psych,loc,2,25,43,4,3,1,1,TRUE,380.4,,left,green
228,26,psych,loc,2,26,42,4,2,4,4,TRUE,380.4,,left,green
228,27,psych,loc,2,27,22,2,2,3,4,FALSE,43.8,,left,green
228,28,psych,loc,2,28,21,2,1,3,3,TRUE,443.8,,left,green
228,29,psych,loc,2,29,23,2,3,3,3,TRUE,443.8,,left,green
228,30,psych,loc,2,30,33,3,3,3,3,TRUE,443.8,,left,green
228,31,psych,loc,2,31,13,1,3,3,0,FALSE,443.8,,left,green
228,32,psych,loc,2,32,34,3,4,4,4,TRUE,107.2,,left,green
228,33,psych,loc,3,33,42,4,2,2,2,TRUE,107.2,,left,green
228,34,psych,loc,3,34,24,2,4,2,2,TRUE,107.2,,left,green
228,35,psych,loc,3,35,22,2,2,1,1,TRUE,107.2,,left,green
228,36,psych,loc,3,36,13,1,3,2,2,TRUE,,,left,green
228,37,psych,loc,3,37,14,1,4,4,4,TRUE,,,left,green
228,38,psych,loc,3,38,41,4,1,2,2,TRUE,,,left,green
228,39,psych,loc,3,39,44,4,4,2,2,TRUE,,,left,green
228,40,psych,loc,3,40,23,2,3,4,1,FALSE,,,left,green
228,41,psych,loc,3,41,12,1,2,2,2,TRUE,,,left,green
228,42,psych,loc,3,42,32,3,2,2,2,TRUE,,,left,green
228,43,psych,loc,3,43,43,4,3,3,3,TRUE,,,left,green
228,44,psych,loc,3,44,21,2,1,3,2,FALSE,,,left,green
228,45,psych,loc,3,45,11,1,1,2,2,TRUE,234,,left,green
228,46,psych,loc,3,46,31,3,1,3,3,TRUE,,,left,green
228,47,psych,loc,3,47,34,3,4,2,2,TRUE,,,left,green
228,48,psych,loc,3,48,33,3,3,1,1,TRUE,,,left,green
228,49,train,loc,1,1,21,2,1,4,4,TRUE,,4104,left,green
228,50,train,loc,1,2,12,1,2,0,0,TRUE,,1827,left,green
228,51,train,loc,1,3,34,3,4,0,0,TRUE,,4808,left,green
228,52,train,loc,1,4,32,3,2,1,1,TRUE,,2138,left,green
228,53,train,loc,1,5,41,4,1,0,0,TRUE,,1305,left,green
228,54,train,loc,1,6,14,1,4,3,3,TRUE,,1282,left,green
228,55,train,loc,1,7,23,2,3,0,0,TRUE,,1646,left,green
228,56,train,loc,1,8,43,4,3,2,2,TRUE,,1781,left,green
228,57,train,loc,2,9,23,2,3,0,0,TRUE,,2315,left,green
228,58,train,loc,2,10,34,3,4,0,0,TRUE,,1747,left,green
228,59,train,loc,2,11,32,3,2,1,1,TRUE,,1935,left,green
228,60,train,loc,2,12,14,1,4,3,3,TRUE,,1306,left,green
228,61,train,loc,2,13,41,4,1,0,0,TRUE,,1568,left,green
228,62,train,loc,2,14,43,4,3,2,2,TRUE,,3811,left,green
228,63,train,loc,2,15,21,2,1,4,4,TRUE,,1717,left,green
228,64,train,loc,2,16,12,1,2,0,0,TRUE,,1500,left,green
228,65,train,loc,3,17,21,2,1,4,4,TRUE,,1967,left,green
228,66,train,loc,3,18,43,4,3,2,2,TRUE,,2128,left,green
228,67,train,loc,3,19,14,1,4,3,3,TRUE,,1268,left,green
228,68,train,loc,3,20,34,3,4,0,0,TRUE,,1343,left,green
228,69,train,loc,3,21,12,1,2,0,0,TRUE,,2371,left,green
228,70,train,loc,3,22,23,2,3,0,0,TRUE,,3192,left,green
228,71,train,loc,3,23,32,3,2,1,1,TRUE,,1317,left,green
228,72,train,loc,3,24,41,4,1,0,0,TRUE,,1281,left,green
228,73,train,crit,1,1,14,1,4,9,-1,FALSE,,-1,left,green
228,74,train,crit,1,2,21,2,1,5,6,FALSE,,1290,left,green
228,75,train,crit,1,3,43,4,3,22,13,FALSE,,1343,left,green
228,76,train,crit,1,4,32,3,2,12,17,FALSE,,978,left,green
228,77,train,crit,2,5,43,4,3,22,22,TRUE,,1181,left,green
228,78,train,crit,2,6,14,1,4,9,10,FALSE,,882,left,green
228,79,train,crit,2,7,32,3,2,12,16,FALSE,,996,left,green
228,80,train,crit,2,8,21,2,1,5,5,TRUE,,860,left,green
228,81,train,crit,3,9,32,3,2,12,12,TRUE,,863,left,green
228,82,train,crit,3,10,43,4,3,22,22,TRUE,,735,left,green
228,83,train,crit,3,11,14,1,4,9,9,TRUE,,951,left,green
228,84,train,crit,3,12,21,2,1,5,4,FALSE,,997,left,green
228,85,train,crit,4,13,14,1,4,9,9,TRUE,,808,left,green
228,86,train,crit,4,14,43,4,3,22,22,TRUE,,763,left,green
228,87,train,crit,4,15,21,2,1,5,5,TRUE,,849,left,green
228,88,train,crit,4,16,32,3,2,12,12,TRUE,,897,left,green
228,89,train,crit,5,17,14,1,4,9,4,FALSE,,683,left,green
228,90,train,crit,5,18,32,3,2,12,12,TRUE,,755,left,green
228,91,train,crit,5,19,21,2,1,5,5,TRUE,,767,left,green
228,92,train,crit,5,20,43,4,3,22,12,FALSE,,1155,left,green
228,93,train,crit,6,21,14,1,4,9,9,TRUE,,890,left,green
228,94,train,crit,6,22,21,2,1,5,5,TRUE,,715,left,green
228,95,train,crit,6,23,32,3,2,12,12,TRUE,,876,left,green
228,96,train,crit,6,24,43,4,3,22,22,TRUE,,1012,left,green
228,97,train,crit,7,25,32,3,2,12,12,TRUE,,540,left,green
228,98,train,crit,7,26,43,4,3,22,22,TRUE,,720,left,green
228,99,train,crit,7,27,14,1,4,9,9,TRUE,,919,left,green
228,100,train,crit,7,28,21,2,1,5,5,TRUE,,767,left,green
228,101,test,crit,1,1,42,4,2,15,11,FALSE,315.14,1381,left,green
228,102,test,crit,1,2,21,2,1,5,5,TRUE,315.14,811,left,green
228,103,test,crit,1,3,23,2,3,12,10,FALSE,315.14,712,left,green
228,104,test,crit,1,4,22,2,2,9,11,FALSE,315.14,955,left,green
228,105,test,crit,1,5,12,1,2,5,6,FALSE,315.14,1085,left,green
228,106,test,crit,1,6,11,1,1,4,4,TRUE,315.14,1046,left,green
228,107,test,crit,1,7,13,1,3,7,16,FALSE,315.14,1656,left,green
228,108,test,crit,1,8,44,4,4,29,25,FALSE,315.14,1114,left,green
228,109,test,crit,1,9,33,3,3,17,20,FALSE,315.14,680,left,green
228,110,test,crit,1,10,41,4,1,9,9,TRUE,315.14,676,left,green
228,111,test,crit,1,11,43,4,3,22,22,TRUE,315.14,586,left,green
228,112,test,crit,1,12,34,3,4,22,22,TRUE,315.14,1023,left,green
228,113,test,crit,1,13,32,3,2,12,12,TRUE,315.14,942,left,green
228,114,test,crit,1,14,14,1,4,9,9,TRUE,315.14,592,left,green
228,115,test,crit,1,15,31,3,1,7,7,TRUE,315.14,904,left,green
228,116,test,crit,1,16,24,2,4,15,10,FALSE,315.14,912,left,green
228,117,test,crit,2,17,41,4,1,9,10,FALSE,315.14,1236,left,green
228,118,test,crit,2,18,33,3,3,17,15,FALSE,315.14,1709,left,green
228,119,test,crit,2,19,31,3,1,7,12,FALSE,315.14,1430,left,green
228,120,test,crit,2,20,32,3,2,12,12,TRUE,315.14,753,left,green
228,121,test,crit,2,21,42,4,2,15,15,TRUE,315.14,1131,left,green
228,122,test,crit,2,22,14,1,4,9,9,TRUE,315.14,928,left,green
228,123,test,crit,2,23,12,1,2,5,9,FALSE,315.14,1144,left,green
228,124,test,crit,2,24,24,2,4,15,11,FALSE,315.14,902,left,green
228,125,test,crit,2,25,11,1,1,4,3,FALSE,315.14,934,left,green
228,126,test,crit,2,26,21,2,1,5,5,TRUE,315.14,593,left,green
228,127,test,crit,2,27,23,2,3,12,10,FALSE,315.14,1053,left,green
228,128,test,crit,2,28,13,1,3,7,10,FALSE,315.14,1180,left,green
228,129,test,crit,2,29,44,4,4,29,25,FALSE,315.14,1053,left,green
228,130,test,crit,2,30,22,2,2,9,8,FALSE,315.14,1608,left,green
228,131,test,crit,2,31,43,4,3,22,22,TRUE,315.14,774,left,green
228,132,test,crit,2,32,34,3,4,22,23,FALSE,315.14,949,left,green
228,133,test,crit,3,33,31,3,1,7,10,FALSE,315.14,1001,left,green
228,134,test,crit,3,34,21,2,1,5,5,TRUE,315.14,1038,left,green
228,135,test,crit,3,35,41,4,1,9,9,TRUE,315.14,925,left,green
228,136,test,crit,3,36,11,1,1,4,3,FALSE,315.14,1076,left,green
228,137,test,crit,3,37,34,3,4,22,23,FALSE,315.14,1344,left,green
228,138,test,crit,3,38,44,4,4,29,25,FALSE,315.14,1001,left,green
228,139,test,crit,3,39,14,1,4,9,9,TRUE,315.14,1796,left,green
228,140,test,crit,3,40,22,2,2,9,8,FALSE,315.14,1032,left,green
228,141,test,crit,3,41,13,1,3,7,6,FALSE,315.14,1195,left,green
228,142,test,crit,3,42,43,4,3,22,22,TRUE,315.14,1332,left,green
228,143,test,crit,3,43,24,2,4,15,11,FALSE,315.14,853,left,green
228,144,test,crit,3,44,42,4,2,15,12,FALSE,315.14,874,left,green
228,145,test,crit,3,45,33,3,3,17,16,FALSE,315.14,681,left,green
228,146,test,crit,3,46,12,1,2,5,5,TRUE,315.14,919,left,green
228,147,test,crit,3,47,32,3,2,12,12,TRUE,315.14,1433,left,green
228,148,test,crit,3,48,23,2,3,12,13,FALSE,315.14,654,left,green
228,149,test,crit,4,49,23,2,3,12,13,FALSE,315.14,806,left,green
228,150,test,crit,4,50,32,3,2,12,12,TRUE,315.14,679,left,green
228,151,test,crit,4,51,13,1,3,7,8,FALSE,315.14,787,left,green
228,152,test,crit,4,52,22,2,2,9,8,FALSE,315.14,861,left,green
228,153,test,crit,4,53,24,2,4,15,11,FALSE,315.14,1019,left,green
228,154,test,crit,4,54,14,1,4,9,9,TRUE,315.14,751,left,green
228,155,test,crit,4,55,11,1,1,4,3,FALSE,315.14,859,left,green
228,156,test,crit,4,56,41,4,1,9,10,FALSE,315.14,833,left,green
228,157,test,crit,4,57,42,4,2,15,11,FALSE,315.14,788,left,green
228,158,test,crit,4,58,12,1,2,5,6,FALSE,315.14,958,left,green
228,159,test,crit,4,59,31,3,1,7,10,FALSE,315.14,1203,left,green
228,160,test,crit,4,60,34,3,4,22,25,FALSE,315.14,1010,left,green
228,161,test,crit,4,61,21,2,1,5,5,TRUE,315.14,808,left,green
228,162,test,crit,4,62,43,4,3,22,22,TRUE,315.14,910,left,green
228,163,test,crit,4,63,33,3,3,17,18,FALSE,315.14,1132,left,green
228,164,test,crit,4,64,44,4,4,29,25,FALSE,315.14,875,left,green
228,165,test,crit,5,65,12,1,2,5,6,FALSE,315.14,885,left,green
228,166,test,crit,5,66,24,2,4,15,11,FALSE,315.14,1119,left,green
228,167,test,crit,5,67,13,1,3,7,7,TRUE,315.14,837,left,green
228,168,test,crit,5,68,21,2,1,5,5,TRUE,315.14,700,left,green
228,169,test,crit,5,69,42,4,2,15,8,FALSE,315.14,991,left,green
228,170,test,crit,5,70,32,3,2,12,12,TRUE,315.14,1862,left,green
228,171,test,crit,5,71,44,4,4,29,25,FALSE,315.14,772,left,green
228,172,test,crit,5,72,14,1,4,9,9,TRUE,315.14,565,left,green
228,173,test,crit,5,73,31,3,1,7,7,TRUE,315.14,812,left,green
228,174,test,crit,5,74,41,4,1,9,10,FALSE,315.14,653,left,green
228,175,test,crit,5,75,33,3,3,17,14,FALSE,315.14,986,left,green
228,176,test,crit,5,76,34,3,4,22,23,FALSE,315.14,1009,left,green
228,177,test,crit,5,77,22,2,2,9,8,FALSE,315.14,747,left,green
228,178,test,crit,5,78,23,2,3,12,17,FALSE,315.14,750,left,green
228,179,test,crit,5,79,11,1,1,4,3,FALSE,315.14,572,left,green
228,180,test,crit,5,80,43,4,3,22,22,TRUE,315.14,851,left,green
228,181,test,crit,6,81,14,1,4,9,9,TRUE,315.14,716,left,green
228,182,test,crit,6,82,12,1,2,5,6,FALSE,315.14,1581,left,green
228,183,test,crit,6,83,11,1,1,4,3,FALSE,315.14,606,left,green
228,184,test,crit,6,84,44,4,4,29,25,FALSE,315.14,800,left,green
228,185,test,crit,6,85,43,4,3,22,22,TRUE,315.14,783,left,green
228,186,test,crit,6,86,33,3,3,17,17,TRUE,315.14,630,left,green
228,187,test,crit,6,87,41,4,1,9,10,FALSE,315.14,908,left,green
228,188,test,crit,6,88,31,3,1,7,8,FALSE,315.14,1118,left,green
228,189,test,crit,6,89,23,2,3,12,13,FALSE,315.14,1533,left,green
228,190,test,crit,6,90,22,2,2,9,8,FALSE,315.14,1042,left,green
228,191,test,crit,6,91,13,1,3,7,8,FALSE,315.14,808,left,green
228,192,test,crit,6,92,24,2,4,15,12,FALSE,315.14,1747,left,green
228,193,test,crit,6,93,42,4,2,15,13,FALSE,315.14,849,left,green
228,194,test,crit,6,94,32,3,2,12,12,TRUE,315.14,798,left,green
228,195,test,crit,6,95,21,2,1,5,5,TRUE,315.14,878,left,green
228,196,test,crit,6,96,34,3,4,22,23,FALSE,315.14,1353,left,green
228,197,test,crit,7,97,21,2,1,5,5,TRUE,315.14,801,left,green
228,198,test,crit,7,98,33,3,3,17,15,FALSE,315.14,796,left,green
228,199,test,crit,7,99,44,4,4,29,25,FALSE,315.14,1183,left,green
228,200,test,crit,7,100,41,4,1,9,10,FALSE,315.14,791,left,green
228,201,test,crit,7,101,23,2,3,12,13,FALSE,315.14,1251,left,green
228,202,test,crit,7,102,22,2,2,9,8,FALSE,315.14,977,left,green
228,203,test,crit,7,103,13,1,3,7,7,TRUE,315.14,1006,left,green
228,204,test,crit,7,104,12,1,2,5,6,FALSE,315.14,1042,left,green
228,205,test,crit,7,105,11,1,1,4,3,FALSE,315.14,741,left,green
228,206,test,crit,7,106,24,2,4,15,8,FALSE,315.14,697,left,green
228,207,test,crit,7,107,43,4,3,22,22,TRUE,315.14,813,left,green
228,208,test,crit,7,108,32,3,2,12,12,TRUE,315.14,617,left,green
228,209,test,crit,7,109,31,3,1,7,7,TRUE,315.14,1085,left,green
228,210,test,crit,7,110,42,4,2,15,11,FALSE,315.14,893,left,green
228,211,test,crit,7,111,14,1,4,9,9,TRUE,315.14,721,left,green
228,212,test,crit,7,112,34,3,4,22,23,FALSE,315.14,979,left,green
228,213,test,crit,8,113,44,4,4,29,25,FALSE,315.14,741,left,green
228,214,test,crit,8,114,23,2,3,12,9,FALSE,315.14,914,left,green
228,215,test,crit,8,115,21,2,1,5,5,TRUE,315.14,1015,left,green
228,216,test,crit,8,116,14,1,4,9,9,TRUE,315.14,899,left,green
228,217,test,crit,8,117,41,4,1,9,10,FALSE,315.14,642,left,green
228,218,test,crit,8,118,43,4,3,22,22,TRUE,315.14,901,left,green
228,219,test,crit,8,119,42,4,2,15,10,FALSE,315.14,859,left,green
228,220,test,crit,8,120,34,3,4,22,23,FALSE,315.14,848,left,green
228,221,test,crit,8,121,31,3,1,7,10,FALSE,315.14,702,left,green
228,222,test,crit,8,122,24,2,4,15,11,FALSE,315.14,850,left,green
228,223,test,crit,8,123,32,3,2,12,11,FALSE,315.14,1255,left,green
228,224,test,crit,8,124,12,1,2,5,6,FALSE,315.14,660,left,green
228,225,test,crit,8,125,22,2,2,9,8,FALSE,315.14,585,left,green
228,226,test,crit,8,126,13,1,3,7,8,FALSE,315.14,806,left,green
228,227,test,crit,8,127,11,1,1,4,3,FALSE,315.14,645,left,green
228,228,test,crit,8,128,33,3,3,17,15,FALSE,315.14,701,left,green
228,229,test,loc,1,1,14,1,4,3,0,FALSE,,2356,left,green
228,230,test,loc,1,2,21,2,1,4,4,TRUE,,2628,left,green
228,231,test,loc,1,3,32,3,2,1,1,TRUE,,1396,left,green
228,232,test,loc,1,4,23,2,3,0,0,TRUE,,1397,left,green
228,233,test,loc,1,5,41,4,1,0,0,TRUE,,1233,left,green
228,234,test,loc,1,6,34,3,4,0,0,TRUE,,1070,left,green
228,235,test,loc,1,7,12,1,2,0,0,TRUE,,1057,left,green
228,236,test,loc,1,8,43,4,3,2,2,TRUE,,1877,left,green
229,1,psych,loc,1,1,32,3,2,3,3,TRUE,2000,,left,purple
229,2,psych,loc,1,2,21,2,1,4,4,TRUE,1663.4,,left,purple
229,3,psych,loc,1,3,33,3,3,3,3,TRUE,1663.4,,left,purple
229,4,psych,loc,1,4,43,4,3,4,4,TRUE,1663.4,,left,purple
229,5,psych,loc,1,5,31,3,1,1,1,TRUE,1663.4,,left,purple
229,6,psych,loc,1,6,11,1,1,3,3,TRUE,1326.8,,left,purple
229,7,psych,loc,1,7,13,1,3,2,2,TRUE,1326.8,,left,purple
229,8,psych,loc,1,8,12,1,2,2,2,TRUE,1326.8,,left,purple
229,9,psych,loc,1,9,23,2,3,1,1,TRUE,1326.8,,left,purple
229,10,psych,loc,1,10,34,3,4,2,2,TRUE,990.2,,left,purple
229,11,psych,loc,1,11,14,1,4,2,2,TRUE,990.2,,left,purple
229,12,psych,loc,1,12,24,2,4,4,4,TRUE,990.2,,left,purple
229,13,psych,loc,1,13,44,4,4,1,1,TRUE,990.2,,left,purple
229,14,psych,loc,1,14,22,2,2,3,3,TRUE,653.6,,left,purple
229,15,psych,loc,1,15,42,4,2,3,3,TRUE,653.6,,left,purple
229,16,psych,loc,1,16,41,4,1,1,1,TRUE,653.6,,left,purple
229,17,psych,loc,2,17,21,2,1,3,3,TRUE,653.6,,left,purple
229,18,psych,loc,2,18,23,2,3,3,3,TRUE,317,,left,purple
229,19,psych,loc,2,19,31,3,1,2,2,TRUE,317,,left,purple
229,20,psych,loc,2,20,32,3,2,3,3,TRUE,317,,left,purple
229,21,psych,loc,2,21,24,2,4,2,2,TRUE,317,,left,purple
229,22,psych,loc,2,22,22,2,2,4,3,FALSE,,,left,purple
229,23,psych,loc,2,23,14,1,4,3,3,TRUE,380.4,,left,purple
229,24,psych,loc,2,24,42,4,2,1,1,TRUE,380.4,,left,purple
229,25,psych,loc,2,25,43,4,3,4,4,TRUE,380.4,,left,purple
229,26,psych,loc,2,26,44,4,4,3,3,TRUE,380.4,,left,purple
229,27,psych,loc,2,27,11,1,1,4,4,TRUE,43.8,,left,purple
229,28,psych,loc,2,28,33,3,3,4,2,FALSE,43.8,,left,purple
229,29,psych,loc,2,29,34,3,4,1,1,TRUE,443.8,,left,purple
229,30,psych,loc,2,30,41,4,1,1,1,TRUE,443.8,,left,purple
229,31,psych,loc,2,31,12,1,2,4,4,TRUE,443.8,,left,purple
229,32,psych,loc,2,32,13,1,3,4,4,TRUE,107.2,,left,purple
229,33,psych,loc,3,33,41,4,1,3,3,TRUE,107.2,,left,purple
229,34,psych,loc,3,34,31,3,1,3,3,TRUE,107.2,,left,purple
229,35,psych,loc,3,35,13,1,3,2,2,TRUE,107.2,,left,purple
229,36,psych,loc,3,36,11,1,1,1,1,TRUE,,,left,purple
229,37,psych,loc,3,37,23,2,3,1,1,TRUE,,,left,purple
229,38,psych,loc,3,38,43,4,3,3,3,TRUE,,,left,purple
229,39,psych,loc,3,39,14,1,4,1,1,TRUE,,,left,purple
229,40,psych,loc,3,40,12,1,2,3,3,TRUE,,,left,purple
229,41,psych,loc,3,41,32,3,2,3,3,TRUE,,,left,purple
229,42,psych,loc,3,42,44,4,4,3,3,TRUE,,,left,purple
229,43,psych,loc,3,43,33,3,3,2,2,TRUE,,,left,purple
229,44,psych,loc,3,44,24,2,4,2,2,TRUE,,,left,purple
229,45,psych,loc,3,45,21,2,1,3,3,TRUE,,,left,purple
229,46,psych,loc,3,46,34,3,4,4,4,TRUE,,,left,purple
229,47,psych,loc,3,47,42,4,2,1,1,TRUE,,,left,purple
229,48,psych,loc,3,48,22,2,2,1,1,TRUE,,,left,purple
229,49,train,loc,1,1,21,2,1,4,4,TRUE,,2112,left,purple
229,50,train,loc,1,2,41,4,1,0,0,TRUE,,3738,left,purple
229,51,train,loc,1,3,43,4,3,2,2,TRUE,,3941,left,purple
229,52,train,loc,1,4,14,1,4,1,1,TRUE,,3980,left,purple
229,53,train,loc,1,5,34,3,4,0,0,TRUE,,4379,left,purple
229,54,train,loc,1,6,32,3,2,3,3,TRUE,,3601,left,purple
229,55,train,loc,1,7,12,1,2,0,0,TRUE,,4438,left,purple
229,56,train,loc,1,8,23,2,3,0,0,TRUE,,3078,left,purple
229,57,train,loc,2,9,43,4,3,2,2,TRUE,,2819,left,purple
229,58,train,loc,2,10,12,1,2,0,0,TRUE,,2628,left,purple
229,59,train,loc,2,11,34,3,4,0,0,TRUE,,3015,left,purple
229,60,train,loc,2,12,41,4,1,0,0,TRUE,,2084,left,purple
229,61,train,loc,2,13,21,2,1,4,4,TRUE,,1542,left,purple
229,62,train,loc,2,14,14,1,4,1,1,TRUE,,1894,left,purple
229,63,train,loc,2,15,32,3,2,3,3,TRUE,,2753,left,purple
229,64,train,loc,2,16,23,2,3,0,0,TRUE,,2218,left,purple
229,65,train,loc,3,17,12,1,2,0,0,TRUE,,1791,left,purple
229,66,train,loc,3,18,41,4,1,0,0,TRUE,,1559,left,purple
229,67,train,loc,3,19,34,3,4,0,0,TRUE,,2083,left,purple
229,68,train,loc,3,20,21,2,1,4,4,TRUE,,1464,left,purple
229,69,train,loc,3,21,23,2,3,0,0,TRUE,,2509,left,purple
229,70,train,loc,3,22,32,3,2,3,3,TRUE,,2619,left,purple
229,71,train,loc,3,23,14,1,4,1,1,TRUE,,2409,left,purple
229,72,train,loc,3,24,43,4,3,2,2,TRUE,,6585,left,purple
229,73,train,crit,1,1,14,1,4,9,10,FALSE,,1664,left,purple
229,74,train,crit,1,2,43,4,3,22,11,FALSE,,854,left,purple
229,75,train,crit,1,3,32,3,2,12,16,FALSE,,1126,left,purple
229,76,train,crit,1,4,21,2,1,5,7,FALSE,,1137,left,purple
229,77,train,crit,2,5,21,2,1,5,5,TRUE,,1274,left,purple
229,78,train,crit,2,6,32,3,2,12,8,FALSE,,1202,left,purple
229,79,train,crit,2,7,14,1,4,9,6,FALSE,,1242,left,purple
229,80,train,crit,2,8,43,4,3,22,22,TRUE,,1506,left,purple
229,81,train,crit,3,9,14,1,4,9,12,FALSE,,989,left,purple
229,82,train,crit,3,10,43,4,3,22,22,TRUE,,726,left,purple
229,83,train,crit,3,11,21,2,1,5,5,TRUE,,1045,left,purple
229,84,train,crit,3,12,32,3,2,12,-1,FALSE,,-1,left,purple
229,85,train,crit,4,13,14,1,4,9,9,TRUE,,835,left,purple
229,86,train,crit,4,14,21,2,1,5,5,TRUE,,844,left,purple
229,87,train,crit,4,15,32,3,2,12,12,TRUE,,594,left,purple
229,88,train,crit,4,16,43,4,3,22,22,TRUE,,733,left,purple
229,89,train,crit,5,17,21,2,1,5,5,TRUE,,1391,left,purple
229,90,train,crit,5,18,14,1,4,9,12,FALSE,,1426,left,purple
229,91,train,crit,5,19,43,4,3,22,22,TRUE,,642,left,purple
229,92,train,crit,5,20,32,3,2,12,5,FALSE,,1801,left,purple
229,93,train,crit,6,21,43,4,3,22,22,TRUE,,582,left,purple
229,94,train,crit,6,22,32,3,2,12,9,FALSE,,691,left,purple
229,95,train,crit,6,23,21,2,1,5,5,TRUE,,1039,left,purple
229,96,train,crit,6,24,14,1,4,9,9,TRUE,,1245,left,purple
229,97,train,crit,7,25,21,2,1,5,5,TRUE,,865,left,purple
229,98,train,crit,7,26,32,3,2,12,12,TRUE,,1125,left,purple
229,99,train,crit,7,27,43,4,3,22,22,TRUE,,877,left,purple
229,100,train,crit,7,28,14,1,4,9,9,TRUE,,841,left,purple
229,101,train,crit,8,29,32,3,2,12,12,TRUE,,760,left,purple
229,102,train,crit,8,30,14,1,4,9,9,TRUE,,834,left,purple
229,103,train,crit,8,31,43,4,3,22,22,TRUE,,894,left,purple
229,104,train,crit,8,32,21,2,1,5,5,TRUE,,1099,left,purple
229,105,test,crit,1,1,11,1,1,4,-1,FALSE,327.91,-1,left,purple
229,106,test,crit,1,2,24,2,4,15,12,FALSE,327.91,1068,left,purple
229,107,test,crit,1,3,41,4,1,9,9,TRUE,327.91,863,left,purple
229,108,test,crit,1,4,42,4,2,15,22,FALSE,327.91,1101,left,purple
229,109,test,crit,1,5,22,2,2,9,5,FALSE,327.91,1022,left,purple
229,110,test,crit,1,6,21,2,1,5,5,TRUE,327.91,1087,left,purple
229,111,test,crit,1,7,33,3,3,17,12,FALSE,327.91,1915,left,purple
229,112,test,crit,1,8,43,4,3,22,22,TRUE,327.91,800,left,purple
229,113,test,crit,1,9,34,3,4,22,22,TRUE,327.91,914,left,purple
229,114,test,crit,1,10,31,3,1,7,5,FALSE,327.91,870,left,purple
229,115,test,crit,1,11,23,2,3,12,12,TRUE,327.91,986,left,purple
229,116,test,crit,1,12,32,3,2,12,12,TRUE,327.91,1041,left,purple
229,117,test,crit,1,13,13,1,3,7,5,FALSE,327.91,875,left,purple
229,118,test,crit,1,14,44,4,4,29,22,FALSE,327.91,819,left,purple
229,119,test,crit,1,15,12,1,2,5,5,TRUE,327.91,1650,left,purple
229,120,test,crit,1,16,14,1,4,9,9,TRUE,327.91,1017,left,purple
229,121,test,crit,2,17,21,2,1,5,5,TRUE,327.91,864,left,purple
229,122,test,crit,2,18,41,4,1,9,12,FALSE,327.91,743,left,purple
229,123,test,crit,2,19,13,1,3,7,5,FALSE,327.91,694,left,purple
229,124,test,crit,2,20,33,3,3,17,12,FALSE,327.91,642,left,purple
229,125,test,crit,2,21,44,4,4,29,22,FALSE,327.91,1115,left,purple
229,126,test,crit,2,22,31,3,1,7,5,FALSE,327.91,659,left,purple
229,127,test,crit,2,23,23,2,3,12,12,TRUE,327.91,669,left,purple
229,128,test,crit,2,24,22,2,2,9,9,TRUE,327.91,1121,left,purple
229,129,test,crit,2,25,42,4,2,15,12,FALSE,327.91,813,left,purple
229,130,test,crit,2,26,24,2,4,15,12,FALSE,327.91,863,left,purple
229,131,test,crit,2,27,11,1,1,4,5,FALSE,327.91,430,left,purple
229,132,test,crit,2,28,32,3,2,12,9,FALSE,327.91,988,left,purple
229,133,test,crit,2,29,12,1,2,5,5,TRUE,327.91,916,left,purple
229,134,test,crit,2,30,34,3,4,22,22,TRUE,327.91,920,left,purple
229,135,test,crit,2,31,14,1,4,9,12,FALSE,327.91,1186,left,purple
229,136,test,crit,2,32,43,4,3,22,22,TRUE,327.91,734,left,purple
229,137,test,crit,3,33,32,3,2,12,-1,FALSE,327.91,-1,left,purple
229,138,test,crit,3,34,11,1,1,4,5,FALSE,327.91,700,left,purple
229,139,test,crit,3,35,41,4,1,9,9,TRUE,327.91,844,left,purple
229,140,test,crit,3,36,13,1,3,7,5,FALSE,327.91,989,left,purple
229,141,test,crit,3,37,22,2,2,9,5,FALSE,327.91,813,left,purple
229,142,test,crit,3,38,21,2,1,5,5,TRUE,327.91,754,left,purple
229,143,test,crit,3,39,43,4,3,22,22,TRUE,327.91,864,left,purple
229,144,test,crit,3,40,23,2,3,12,12,TRUE,327.91,1258,left,purple
229,145,test,crit,3,41,14,1,4,9,9,TRUE,327.91,839,left,purple
229,146,test,crit,3,42,33,3,3,17,12,FALSE,327.91,930,left,purple
229,147,test,crit,3,43,31,3,1,7,5,FALSE,327.91,1139,left,purple
229,148,test,crit,3,44,42,4,2,15,12,FALSE,327.91,984,left,purple
229,149,test,crit,3,45,44,4,4,29,22,FALSE,327.91,662,left,purple
229,150,test,crit,3,46,34,3,4,22,22,TRUE,327.91,1141,left,purple
229,151,test,crit,3,47,24,2,4,15,12,FALSE,327.91,993,left,purple
229,152,test,crit,3,48,12,1,2,5,5,TRUE,327.91,1250,left,purple
229,153,test,crit,4,49,44,4,4,29,22,FALSE,327.91,662,left,purple
229,154,test,crit,4,50,43,4,3,22,22,TRUE,327.91,588,left,purple
229,155,test,crit,4,51,12,1,2,5,5,TRUE,327.91,1025,left,purple
229,156,test,crit,4,52,21,2,1,5,5,TRUE,327.91,863,left,purple
229,157,test,crit,4,53,13,1,3,7,5,FALSE,327.91,952,left,purple
229,158,test,crit,4,54,34,3,4,22,22,TRUE,327.91,750,left,purple
229,159,test,crit,4,55,11,1,1,4,5,FALSE,327.91,1140,left,purple
229,160,test,crit,4,56,23,2,3,12,12,TRUE,327.91,1130,left,purple
229,161,test,crit,4,57,32,3,2,12,9,FALSE,327.91,872,left,purple
229,162,test,crit,4,58,31,3,1,7,5,FALSE,327.91,1017,left,purple
229,163,test,crit,4,59,41,4,1,9,9,TRUE,327.91,1093,left,purple
229,164,test,crit,4,60,42,4,2,15,12,FALSE,327.91,669,left,purple
229,165,test,crit,4,61,33,3,3,17,12,FALSE,327.91,1308,left,purple
229,166,test,crit,4,62,14,1,4,9,9,TRUE,327.91,743,left,purple
229,167,test,crit,4,63,24,2,4,15,9,FALSE,327.91,791,left,purple
229,168,test,crit,4,64,22,2,2,9,5,FALSE,327.91,1102,left,purple
229,169,test,crit,5,65,22,2,2,9,5,FALSE,327.91,921,left,purple
229,170,test,crit,5,66,42,4,2,15,9,FALSE,327.91,938,left,purple
229,171,test,crit,5,67,34,3,4,22,9,FALSE,327.91,950,left,purple
229,172,test,crit,5,68,11,1,1,4,5,FALSE,327.91,1035,left,purple
229,173,test,crit,5,69,32,3,2,12,8,FALSE,327.91,563,left,purple
229,174,test,crit,5,70,12,1,2,5,5,TRUE,327.91,810,left,purple
229,175,test,crit,5,71,23,2,3,12,5,FALSE,327.91,1501,left,purple
229,176,test,crit,5,72,13,1,3,7,5,FALSE,327.91,867,left,purple
229,177,test,crit,5,73,21,2,1,5,5,TRUE,327.91,951,left,purple
229,178,test,crit,5,74,44,4,4,29,22,FALSE,327.91,755,left,purple
229,179,test,crit,5,75,43,4,3,22,22,TRUE,327.91,668,left,purple
229,180,test,crit,5,76,24,2,4,15,11,FALSE,327.91,771,left,purple
229,181,test,crit,5,77,14,1,4,9,9,TRUE,327.91,1106,left,purple
229,182,test,crit,5,78,41,4,1,9,9,TRUE,327.91,1043,left,purple
229,183,test,crit,5,79,33,3,3,17,9,FALSE,327.91,841,left,purple
229,184,test,crit,5,80,31,3,1,7,9,FALSE,327.91,1150,left,purple
229,185,test,crit,6,81,21,2,1,5,5,TRUE,327.91,1219,left,purple
229,186,test,crit,6,82,43,4,3,22,12,FALSE,327.91,1109,left,purple
229,187,test,crit,6,83,14,1,4,9,9,TRUE,327.91,803,left,purple
229,188,test,crit,6,84,41,4,1,9,9,TRUE,327.91,1636,left,purple
229,189,test,crit,6,85,24,2,4,15,9,FALSE,327.91,1356,left,purple
229,190,test,crit,6,86,12,1,2,5,5,TRUE,327.91,1388,left,purple
229,191,test,crit,6,87,34,3,4,22,22,TRUE,327.91,758,left,purple
229,192,test,crit,6,88,44,4,4,29,22,FALSE,327.91,760,left,purple
229,193,test,crit,6,89,23,2,3,12,13,FALSE,327.91,1021,left,purple
229,194,test,crit,6,90,32,3,2,12,12,TRUE,327.91,539,left,purple
229,195,test,crit,6,91,11,1,1,4,5,FALSE,327.91,959,left,purple
229,196,test,crit,6,92,22,2,2,9,5,FALSE,327.91,1561,left,purple
229,197,test,crit,6,93,33,3,3,17,9,FALSE,327.91,921,left,purple
229,198,test,crit,6,94,31,3,1,7,5,FALSE,327.91,1057,left,purple
229,199,test,crit,6,95,13,1,3,7,5,FALSE,327.91,932,left,purple
229,200,test,crit,6,96,42,4,2,15,12,FALSE,327.91,693,left,purple
229,201,test,crit,7,97,24,2,4,15,12,FALSE,327.91,809,left,purple
229,202,test,crit,7,98,34,3,4,22,12,FALSE,327.91,616,left,purple
229,203,test,crit,7,99,21,2,1,5,5,TRUE,327.91,814,left,purple
229,204,test,crit,7,100,41,4,1,9,9,TRUE,327.91,613,left,purple
229,205,test,crit,7,101,32,3,2,12,9,FALSE,327.91,550,left,purple
229,206,test,crit,7,102,12,1,2,5,5,TRUE,327.91,850,left,purple
229,207,test,crit,7,103,22,2,2,9,5,FALSE,327.91,703,left,purple
229,208,test,crit,7,104,13,1,3,7,5,FALSE,327.91,755,left,purple
229,209,test,crit,7,105,14,1,4,9,5,FALSE,327.91,659,left,purple
229,210,test,crit,7,106,44,4,4,29,22,FALSE,327.91,765,left,purple
229,211,test,crit,7,107,11,1,1,4,5,FALSE,327.91,771,left,purple
229,212,test,crit,7,108,31,3,1,7,5,FALSE,327.91,873,left,purple
229,213,test,crit,7,109,43,4,3,22,22,TRUE,327.91,843,left,purple
229,214,test,crit,7,110,23,2,3,12,12,TRUE,327.91,845,left,purple
229,215,test,crit,7,111,33,3,3,17,12,FALSE,327.91,891,left,purple
229,216,test,crit,7,112,42,4,2,15,9,FALSE,327.91,863,left,purple
229,217,test,crit,8,113,24,2,4,15,9,FALSE,327.91,1070,left,purple
229,218,test,crit,8,114,33,3,3,17,12,FALSE,327.91,945,left,purple
229,219,test,crit,8,115,11,1,1,4,5,FALSE,327.91,873,left,purple
229,220,test,crit,8,116,13,1,3,7,5,FALSE,327.91,826,left,purple
229,221,test,crit,8,117,32,3,2,12,9,FALSE,327.91,691,left,purple
229,222,test,crit,8,118,23,2,3,12,9,FALSE,327.91,881,left,purple
229,223,test,crit,8,119,41,4,1,9,9,TRUE,327.91,1344,left,purple
229,224,test,crit,8,120,12,1,2,5,5,TRUE,327.91,1243,left,purple
229,225,test,crit,8,121,44,4,4,29,22,FALSE,327.91,708,left,purple
229,226,test,crit,8,122,22,2,2,9,5,FALSE,327.91,778,left,purple
229,227,test,crit,8,123,31,3,1,7,5,FALSE,327.91,1225,left,purple
229,228,test,crit,8,124,34,3,4,22,22,TRUE,327.91,671,left,purple
229,229,test,crit,8,125,43,4,3,22,22,TRUE,327.91,666,left,purple
229,230,test,crit,8,126,21,2,1,5,5,TRUE,327.91,978,left,purple
229,231,test,crit,8,127,42,4,2,15,12,FALSE,327.91,782,left,purple
229,232,test,crit,8,128,14,1,4,9,9,TRUE,327.91,1043,left,purple
229,233,test,loc,1,1,43,4,3,2,0,FALSE,,3120,left,purple
229,234,test,loc,1,2,23,2,3,0,0,TRUE,,2572,left,purple
229,235,test,loc,1,3,34,3,4,0,0,TRUE,,3418,left,purple
229,236,test,loc,1,4,41,4,1,0,0,TRUE,,1632,left,purple
229,237,test,loc,1,5,21,2,1,4,4,TRUE,,1711,left,purple
229,238,test,loc,1,6,14,1,4,1,1,TRUE,,1652,left,purple
229,239,test,loc,1,7,12,1,2,0,0,TRUE,,1623,left,purple
229,240,test,loc,1,8,32,3,2,3,3,TRUE,,1773,left,purple
230,1,psych,loc,1,1,41,4,1,2,2,TRUE,2000,,left,purple
230,2,psych,loc,1,2,33,3,3,2,2,TRUE,1663.4,,left,purple
230,3,psych,loc,1,3,22,2,2,2,2,TRUE,1663.4,,left,purple
230,4,psych,loc,1,4,21,2,1,2,2,TRUE,1663.4,,left,purple
230,5,psych,loc,1,5,34,3,4,1,1,TRUE,1663.4,,left,purple
230,6,psych,loc,1,6,13,1,3,1,1,TRUE,1326.8,,left,purple
230,7,psych,loc,1,7,32,3,2,4,4,TRUE,1326.8,,left,purple
230,8,psych,loc,1,8,23,2,3,2,2,TRUE,1326.8,,left,purple
230,9,psych,loc,1,9,43,4,3,3,3,TRUE,1326.8,,left,purple
230,10,psych,loc,1,10,14,1,4,2,2,TRUE,990.2,,left,purple
230,11,psych,loc,1,11,42,4,2,3,3,TRUE,990.2,,left,purple
230,12,psych,loc,1,12,11,1,1,1,1,TRUE,990.2,,left,purple
230,13,psych,loc,1,13,44,4,4,3,3,TRUE,990.2,,left,purple
230,14,psych,loc,1,14,31,3,1,4,4,TRUE,653.6,,left,purple
230,15,psych,loc,1,15,12,1,2,2,2,TRUE,653.6,,left,purple
