subj,index,phase,var,block,trial,stim,x1,x2,value,resp,corr,offset,rt,x1_pos,x1_col
101,1,psych,loc,1,1,14,1,4,1,1,TRUE,2000,,right,green
101,2,psych,loc,1,2,23,2,3,2,2,TRUE,1663.4,,right,green
101,3,psych,loc,1,3,31,3,1,4,4,TRUE,1663.4,,right,green
101,4,psych,loc,1,4,12,1,2,3,3,TRUE,1663.4,,right,green
101,5,psych,loc,1,5,42,4,2,4,4,TRUE,1663.4,,right,green
101,6,psych,loc,1,6,24,2,4,3,3,TRUE,1326.8,,right,green
101,7,psych,loc,1,7,41,4,1,1,1,TRUE,1326.8,,right,green
101,8,psych,loc,1,8,43,4,3,4,4,TRUE,1326.8,,right,green
101,9,psych,loc,1,9,21,2,1,1,1,TRUE,1326.8,,right,green
101,10,psych,loc,1,10,11,1,1,4,4,TRUE,990.2,,right,green
101,11,psych,loc,1,11,44,4,4,3,3,TRUE,990.2,,right,green
101,12,psych,loc,1,12,13,1,3,3,3,TRUE,990.2,,right,green
101,13,psych,loc,1,13,33,3,3,3,3,TRUE,990.2,,right,green
101,14,psych,loc,1,14,32,3,2,1,1,TRUE,653.6,,right,green
101,15,psych,loc,1,15,34,3,4,1,1,TRUE,653.6,,right,green
101,16,psych,loc,1,16,22,2,2,2,2,TRUE,653.6,,right,green
101,17,psych,loc,2,17,22,2,2,4,4,TRUE,653.6,,right,green
101,18,psych,loc,2,18,42,4,2,1,1,TRUE,317,,right,green
101,19,psych,loc,2,19,14,1,4,1,1,TRUE,317,,right,green
101,20,psych,loc,2,20,23,2,3,3,3,TRUE,317,,right,green
101,21,psych,loc,2,21,41,4,1,1,1,TRUE,317,,right,green
101,22,psych,loc,2,22,31,3,1,2,2,TRUE,,,right,green
101,23,psych,loc,2,23,33,3,3,2,3,FALSE,,,right,green
101,24,psych,loc,2,24,12,1,2,2,2,TRUE,380.4,,right,green
101,25,psych,loc,2,25,34,3,4,3,3,TRUE,380.4,,right,green
101,26,psych,loc,2,26,21,2,1,4,4,TRUE,380.4,,right,green
101,27,psych,loc,2,27,43,4,3,3,1,FALSE,43.8,,right,green
101,28,psych,loc,2,28,32,3,2,4,4,TRUE,443.8,,right,green
101,29,psych,loc,2,29,11,1,1,1,1,TRUE,443.8,,right,green
101,30,psych,loc,2,30,44,4,4,1,1,TRUE,443.8,,right,green
101,31,psych,loc,2,31,24,2,4,3,3,TRUE,443.8,,right,green
101,32,psych,loc,2,32,13,1,3,1,1,TRUE,107.2,,right,green
101,33,psych,loc,3,33,42,4,2,1,1,TRUE,107.2,,right,green
101,34,psych,loc,3,34,22,2,2,4,4,TRUE,107.2,,right,green
101,35,psych,loc,3,35,33,3,3,4,4,TRUE,107.2,,right,green
101,36,psych,loc,3,36,11,1,1,2,2,TRUE,,,right,green
101,37,psych,loc,3,37,13,1,3,1,1,TRUE,,,right,green
101,38,psych,loc,3,38,31,3,1,2,2,TRUE,,,right,green
101,39,psych,loc,3,39,34,3,4,2,2,TRUE,,,right,green
101,40,psych,loc,3,40,14,1,4,3,3,TRUE,,,right,green
101,41,psych,loc,3,41,24,2,4,4,1,FALSE,,,right,green
101,42,psych,loc,3,42,12,1,2,2,2,TRUE,,,right,green
101,43,psych,loc,3,43,43,4,3,2,2,TRUE,,,right,green
101,44,psych,loc,3,44,32,3,2,3,3,TRUE,,,right,green
101,45,psych,loc,3,45,44,4,4,1,1,TRUE,,,right,green
101,46,psych,loc,3,46,41,4,1,1,1,TRUE,,,right,green
101,47,psych,loc,3,47,21,2,1,2,2,TRUE,,,right,green
101,48,psych,loc,3,48,23,2,3,4,4,TRUE,,,right,green
101,49,train,loc,1,1,32,3,2,1,1,TRUE,,8127,right,green
101,50,train,loc,1,2,24,2,4,3,3,TRUE,,8995,right,green
101,51,train,loc,1,3,41,4,1,4,0,FALSE,,3267,right,green
101,52,train,loc,1,4,31,3,1,0,0,TRUE,,27017,right,green
101,53,train,loc,1,5,42,4,2,0,0,TRUE,,7840,right,green
101,54,train,loc,1,6,14,1,4,0,0,TRUE,,8933,right,green
101,55,train,loc,1,7,13,1,3,2,2,TRUE,,6307,right,green
101,56,train,loc,1,8,23,2,3,0,0,TRUE,,3265,right,green
101,57,train,loc,2,9,23,2,3,0,0,TRUE,,4934,right,green
101,58,train,loc,2,10,24,2,4,3,3,TRUE,,3688,right,green
101,59,train,loc,2,11,31,3,1,0,0,TRUE,,4091,right,green
101,60,train,loc,2,12,14,1,4,0,0,TRUE,,6703,right,green
101,61,train,loc,2,13,13,1,3,2,2,TRUE,,2757,right,green
101,62,train,loc,2,14,41,4,1,4,4,TRUE,,5089,right,green
101,63,train,loc,2,15,32,3,2,1,1,TRUE,,3004,right,green
101,64,train,loc,2,16,42,4,2,0,0,TRUE,,1756,right,green
101,65,train,loc,3,17,13,1,3,2,2,TRUE,,4596,right,green
101,66,train,loc,3,18,23,2,3,0,0,TRUE,,2426,right,green
101,67,train,loc,3,19,14,1,4,0,0,TRUE,,2803,right,green
101,68,train,loc,3,20,32,3,2,1,1,TRUE,,2070,right,green
101,69,train,loc,3,21,41,4,1,4,4,TRUE,,3085,right,green
101,70,train,loc,3,22,24,2,4,3,3,TRUE,,4628,right,green
101,71,train,loc,3,23,31,3,1,0,0,TRUE,,2420,right,green
101,72,train,loc,3,24,42,4,2,0,0,TRUE,,3309,right,green
101,73,train,loc,4,25,14,1,4,0,0,TRUE,,4931,right,green
101,74,train,loc,4,26,31,3,1,0,0,TRUE,,4546,right,green
101,75,train,loc,4,27,23,2,3,0,0,TRUE,,4183,right,green
101,76,train,loc,4,28,41,4,1,4,4,TRUE,,4429,right,green
101,77,train,loc,4,29,24,2,4,3,3,TRUE,,2510,right,green
101,78,train,loc,4,30,42,4,2,0,0,TRUE,,2395,right,green
101,79,train,loc,4,31,13,1,3,2,2,TRUE,,3903,right,green
101,80,train,loc,4,32,32,3,2,1,1,TRUE,,3684,right,green
101,81,train,crit,1,1,41,4,1,21,18,FALSE,,1535,right,green
101,82,train,crit,1,2,32,3,2,17,24,FALSE,,1420,right,green
101,83,train,crit,1,3,13,1,3,8,26,FALSE,,1165,right,green
101,84,train,crit,1,4,24,2,4,14,3,FALSE,,1522,right,green
101,85,train,crit,2,5,32,3,2,17,17,TRUE,,1018,right,green
101,86,train,crit,2,6,24,2,4,14,14,TRUE,,1069,right,green
101,87,train,crit,2,7,41,4,1,21,21,TRUE,,982,right,green
101,88,train,crit,2,8,13,1,3,8,8,TRUE,,1171,right,green
101,89,train,crit,3,9,41,4,1,21,21,TRUE,,1002,right,green
101,90,train,crit,3,10,24,2,4,14,14,TRUE,,813,right,green
101,91,train,crit,3,11,13,1,3,8,8,TRUE,,997,right,green
101,92,train,crit,3,12,32,3,2,17,17,TRUE,,885,right,green
101,93,train,crit,4,13,32,3,2,17,17,TRUE,,1096,right,green
101,94,train,crit,4,14,24,2,4,14,14,TRUE,,956,right,green
101,95,train,crit,4,15,41,4,1,21,21,TRUE,,1019,right,green
101,96,train,crit,4,16,13,1,3,8,8,TRUE,,1458,right,green
101,97,test,crit,1,1,34,3,4,19,16,FALSE,292.63,1009,right,green
101,98,test,crit,1,2,13,1,3,8,8,TRUE,292.63,1143,right,green
101,99,test,crit,1,3,22,2,2,12,15,FALSE,292.63,1709,right,green
101,100,test,crit,1,4,32,3,2,17,17,TRUE,292.63,1027,right,green
101,101,test,crit,1,5,23,2,3,13,10,FALSE,292.63,1131,right,green
101,102,test,crit,1,6,12,1,2,7,11,FALSE,292.63,1036,right,green
101,103,test,crit,1,7,14,1,4,9,12,FALSE,292.63,861,right,green
101,104,test,crit,1,8,21,2,1,11,16,FALSE,292.63,989,right,green
101,105,test,crit,1,9,33,3,3,18,11,FALSE,292.63,818,right,green
101,106,test,crit,1,10,41,4,1,21,21,TRUE,292.63,986,right,green
101,107,test,crit,1,11,11,1,1,6,3,FALSE,292.63,1132,right,green
101,108,test,crit,1,12,31,3,1,16,14,FALSE,292.63,1225,right,green
101,109,test,crit,1,13,24,2,4,14,14,TRUE,292.63,997,right,green
101,110,test,crit,1,14,42,4,2,22,19,FALSE,292.63,817,right,green
101,111,test,crit,1,15,44,4,4,24,29,FALSE,292.63,1307,right,green
101,112,test,crit,1,16,43,4,3,23,23,TRUE,292.63,1364,right,green
101,113,test,crit,2,17,11,1,1,6,3,FALSE,292.63,1218,right,green
101,114,test,crit,2,18,12,1,2,7,11,FALSE,292.63,1083,right,green
101,115,test,crit,2,19,13,1,3,8,8,TRUE,292.63,852,right,green
101,116,test,crit,2,20,31,3,1,16,18,FALSE,292.63,765,right,green
101,117,test,crit,2,21,21,2,1,11,12,FALSE,292.63,1658,right,green
101,118,test,crit,2,22,44,4,4,24,27,FALSE,292.63,1555,right,green
101,119,test,crit,2,23,33,3,3,18,10,FALSE,292.63,1087,right,green
101,120,test,crit,2,24,43,4,3,23,26,FALSE,292.63,1027,right,green
101,121,test,crit,2,25,42,4,2,22,19,FALSE,292.63,977,right,green
101,122,test,crit,2,26,41,4,1,21,21,TRUE,292.63,889,right,green
101,123,test,crit,2,27,24,2,4,14,14,TRUE,292.63,938,right,green
101,124,test,crit,2,28,34,3,4,19,17,FALSE,292.63,935,right,green
101,125,test,crit,2,29,32,3,2,17,17,TRUE,292.63,776,right,green
101,126,test,crit,2,30,23,2,3,13,10,FALSE,292.63,963,right,green
101,127,test,crit,2,31,14,1,4,9,12,FALSE,292.63,1336,right,green
101,128,test,crit,2,32,22,2,2,12,15,FALSE,292.63,929,right,green
101,129,test,crit,3,33,22,2,2,12,16,FALSE,292.63,1048,right,green
101,130,test,crit,3,34,32,3,2,17,17,TRUE,292.63,815,right,green
101,131,test,crit,3,35,14,1,4,9,12,FALSE,292.63,968,right,green
101,132,test,crit,3,36,21,2,1,11,9,FALSE,292.63,915,right,green
101,133,test,crit,3,37,12,1,2,7,10,FALSE,292.63,1076,right,green
101,134,test,crit,3,38,42,4,2,22,19,FALSE,292.63,843,right,green
101,135,test,crit,3,39,43,4,3,23,25,FALSE,292.63,897,right,green
101,136,test,crit,3,40,31,3,1,16,19,FALSE,292.63,898,right,green
101,137,test,crit,3,41,24,2,4,14,14,TRUE,292.63,877,right,green
101,138,test,crit,3,42,44,4,4,24,30,FALSE,292.63,844,right,green
101,139,test,crit,3,43,41,4,1,21,21,TRUE,292.63,1536,right,green
101,140,test,crit,3,44,33,3,3,18,26,FALSE,292.63,915,right,green
101,141,test,crit,3,45,11,1,1,6,1,FALSE,292.63,1118,right,green
101,142,test,crit,3,46,23,2,3,13,10,FALSE,292.63,903,right,green
101,143,test,crit,3,47,13,1,3,8,8,TRUE,292.63,863,right,green
101,144,test,crit,3,48,34,3,4,19,26,FALSE,292.63,924,right,green
101,145,test,crit,4,49,13,1,3,8,8,TRUE,292.63,1019,right,green
101,146,test,crit,4,50,42,4,2,22,19,FALSE,292.63,1052,right,green
101,147,test,crit,4,51,11,1,1,6,1,FALSE,292.63,1047,right,green
101,148,test,crit,4,52,23,2,3,13,7,FALSE,292.63,1085,right,green
101,149,test,crit,4,53,43,4,3,23,27,FALSE,292.63,857,right,green
101,150,test,crit,4,54,33,3,3,18,26,FALSE,292.63,911,right,green
101,151,test,crit,4,55,24,2,4,14,14,TRUE,292.63,1051,right,green
101,152,test,crit,4,56,34,3,4,19,28,FALSE,292.63,1118,right,green
101,153,test,crit,4,57,22,2,2,12,15,FALSE,292.63,797,right,green
101,154,test,crit,4,58,21,2,1,11,11,TRUE,292.63,1162,right,green
101,155,test,crit,4,59,32,3,2,17,17,TRUE,292.63,1018,right,green
101,156,test,crit,4,60,14,1,4,9,18,FALSE,292.63,1153,right,green
101,157,test,crit,4,61,41,4,1,21,21,TRUE,292.63,891,right,green
101,158,test,crit,4,62,31,3,1,16,19,FALSE,292.63,1114,right,green
101,159,test,crit,4,63,44,4,4,24,29,FALSE,292.63,1402,right,green
101,160,test,crit,4,64,12,1,2,7,7,TRUE,292.63,1033,right,green
101,161,test,crit,5,65,11,1,1,6,1,FALSE,292.63,1120,right,green
101,162,test,crit,5,66,33,3,3,18,25,FALSE,292.63,1151,right,green
101,163,test,crit,5,67,43,4,3,23,27,FALSE,292.63,1454,right,green
101,164,test,crit,5,68,21,2,1,11,7,FALSE,292.63,1107,right,green
101,165,test,crit,5,69,12,1,2,7,9,FALSE,292.63,918,right,green
101,166,test,crit,5,70,44,4,4,24,30,FALSE,292.63,994,right,green
101,167,test,crit,5,71,34,3,4,19,25,FALSE,292.63,916,right,green
101,168,test,crit,5,72,14,1,4,9,11,FALSE,292.63,1141,right,green
101,169,test,crit,5,73,31,3,1,16,17,FALSE,292.63,1521,right,green
101,170,test,crit,5,74,24,2,4,14,14,TRUE,292.63,1167,right,green
101,171,test,crit,5,75,23,2,3,13,7,FALSE,292.63,1249,right,green
101,172,test,crit,5,76,42,4,2,22,15,FALSE,292.63,954,right,green
101,173,test,crit,5,77,41,4,1,21,21,TRUE,292.63,867,right,green
101,174,test,crit,5,78,13,1,3,8,8,TRUE,292.63,956,right,green
101,175,test,crit,5,79,32,3,2,17,17,TRUE,292.63,1001,right,green
101,176,test,crit,5,80,22,2,2,12,14,FALSE,292.63,1086,right,green
101,177,test,crit,6,81,14,1,4,9,12,FALSE,292.63,1018,right,green
101,178,test,crit,6,82,43,4,3,23,27,FALSE,292.63,1150,right,green
101,179,test,crit,6,83,42,4,2,22,23,FALSE,292.63,1422,right,green
101,180,test,crit,6,84,23,2,3,13,12,FALSE,292.63,1128,right,green
101,181,test,crit,6,85,32,3,2,17,17,TRUE,292.63,1219,right,green
101,182,test,crit,6,86,11,1,1,6,1,FALSE,292.63,1117,right,green
101,183,test,crit,6,87,24,2,4,14,14,TRUE,292.63,975,right,green
101,184,test,crit,6,88,41,4,1,21,21,TRUE,292.63,1035,right,green
101,185,test,crit,6,89,21,2,1,11,10,FALSE,292.63,1243,right,green
101,186,test,crit,6,90,31,3,1,16,19,FALSE,292.63,1727,right,green
101,187,test,crit,6,91,22,2,2,12,-1,FALSE,292.63,-1,right,green
101,188,test,crit,6,92,12,1,2,7,12,FALSE,292.63,1008,right,green
101,189,test,crit,6,93,33,3,3,18,24,FALSE,292.63,1004,right,green
101,190,test,crit,6,94,34,3,4,19,28,FALSE,292.63,1149,right,green
101,191,test,crit,6,95,13,1,3,8,8,TRUE,292.63,927,right,green
101,192,test,crit,6,96,44,4,4,24,30,FALSE,292.63,1024,right,green
101,193,test,crit,7,97,24,2,4,14,14,TRUE,292.63,1000,right,green
101,194,test,crit,7,98,41,4,1,21,21,TRUE,292.63,1277,right,green
101,195,test,crit,7,99,12,1,2,7,7,TRUE,292.63,1045,right,green
101,196,test,crit,7,100,23,2,3,13,10,FALSE,292.63,810,right,green
101,197,test,crit,7,101,34,3,4,19,24,FALSE,292.63,1021,right,green
101,198,test,crit,7,102,32,3,2,17,17,TRUE,292.63,1084,right,green
101,199,test,crit,7,103,11,1,1,6,1,FALSE,292.63,1045,right,green
101,200,test,crit,7,104,21,2,1,11,9,FALSE,292.63,955,right,green
101,201,test,crit,7,105,42,4,2,22,22,TRUE,292.63,756,right,green
101,202,test,crit,7,106,13,1,3,8,8,TRUE,292.63,1041,right,green
101,203,test,crit,7,107,22,2,2,12,15,FALSE,292.63,740,right,green
101,204,test,crit,7,108,33,3,3,18,27,FALSE,292.63,886,right,green
101,205,test,crit,7,109,44,4,4,24,30,FALSE,292.63,949,right,green
101,206,test,crit,7,110,14,1,4,9,16,FALSE,292.63,879,right,green
101,207,test,crit,7,111,31,3,1,16,19,FALSE,292.63,809,right,green
101,208,test,crit,7,112,43,4,3,23,27,FALSE,292.63,981,right,green
101,209,test,crit,8,113,31,3,1,16,20,FALSE,292.63,1315,right,green
101,210,test,crit,8,114,11,1,1,6,1,FALSE,292.63,1046,right,green
101,211,test,crit,8,115,43,4,3,23,26,FALSE,292.63,920,right,green
101,212,test,crit,8,116,12,1,2,7,8,FALSE,292.63,1074,right,green
101,213,test,crit,8,117,13,1,3,8,8,TRUE,292.63,1057,right,green
101,214,test,crit,8,118,21,2,1,11,7,FALSE,292.63,856,right,green
101,215,test,crit,8,119,33,3,3,18,22,FALSE,292.63,1048,right,green
101,216,test,crit,8,120,41,4,1,21,21,TRUE,292.63,945,right,green
101,217,test,crit,8,121,24,2,4,14,14,TRUE,292.63,954,right,green
101,218,test,crit,8,122,32,3,2,17,17,TRUE,292.63,992,right,green
101,219,test,crit,8,123,44,4,4,24,30,FALSE,292.63,1042,right,green
101,220,test,crit,8,124,34,3,4,19,26,FALSE,292.63,781,right,green
101,221,test,crit,8,125,14,1,4,9,16,FALSE,292.63,831,right,green
101,222,test,crit,8,126,22,2,2,12,15,FALSE,292.63,664,right,green
101,223,test,crit,8,127,23,2,3,13,11,FALSE,292.63,935,right,green
101,224,test,crit,8,128,42,4,2,22,19,FALSE,292.63,796,right,green
101,225,test,loc,1,1,14,1,4,0,0,TRUE,,4505,right,green
101,226,test,loc,1,2,41,4,1,4,4,TRUE,,3253,right,green
101,227,test,loc,1,3,42,4,2,0,0,TRUE,,2806,right,green
101,228,test,loc,1,4,32,3,2,1,1,TRUE,,1530,right,green
101,229,test,loc,1,5,23,2,3,0,0,TRUE,,4296,right,green
101,230,test,loc,1,6,31,3,1,0,0,TRUE,,2364,right,green
101,231,test,loc,1,7,13,1,3,2,2,TRUE,,1602,right,green
101,232,test,loc,1,8,24,2,4,3,3,TRUE,,1548,right,green
102,1,psych,loc,1,1,44,4,4,4,4,TRUE,2000,,left,purple
102,2,psych,loc,1,2,13,1,3,4,4,TRUE,1663.4,,left,purple
102,3,psych,loc,1,3,14,1,4,2,2,TRUE,1663.4,,left,purple
102,4,psych,loc,1,4,12,1,2,4,4,TRUE,1663.4,,left,purple
102,5,psych,loc,1,5,31,3,1,4,4,TRUE,1663.4,,left,purple
102,6,psych,loc,1,6,32,3,2,4,4,TRUE,1326.8,,left,purple
102,7,psych,loc,1,7,21,2,1,4,4,TRUE,1326.8,,left,purple
102,8,psych,loc,1,8,22,2,2,1,1,TRUE,1326.8,,left,purple
102,9,psych,loc,1,9,41,4,1,3,3,TRUE,1326.8,,left,purple
102,10,psych,loc,1,10,43,4,3,3,3,TRUE,990.2,,left,purple
102,11,psych,loc,1,11,24,2,4,3,3,TRUE,990.2,,left,purple
102,12,psych,loc,1,12,42,4,2,4,4,TRUE,990.2,,left,purple
102,13,psych,loc,1,13,34,3,4,3,3,TRUE,990.2,,left,purple
102,14,psych,loc,1,14,11,1,1,4,4,TRUE,653.6,,left,purple
102,15,psych,loc,1,15,23,2,3,3,3,TRUE,653.6,,left,purple
102,16,psych,loc,1,16,33,3,3,1,1,TRUE,653.6,,left,purple
102,17,psych,loc,2,17,21,2,1,2,2,TRUE,653.6,,left,purple
102,18,psych,loc,2,18,32,3,2,1,1,TRUE,317,,left,purple
102,19,psych,loc,2,19,44,4,4,4,4,TRUE,317,,left,purple
102,20,psych,loc,2,20,43,4,3,4,4,TRUE,317,,left,purple
102,21,psych,loc,2,21,12,1,2,2,2,TRUE,317,,left,purple
102,22,psych,loc,2,22,23,2,3,2,2,TRUE,,,left,purple
102,23,psych,loc,2,23,34,3,4,4,4,TRUE,,,left,purple
102,24,psych,loc,2,24,22,2,2,2,2,TRUE,,,left,purple
102,25,psych,loc,2,25,33,3,3,4,4,TRUE,,,left,purple
102,26,psych,loc,2,26,11,1,1,3,3,TRUE,,,left,purple
102,27,psych,loc,2,27,42,4,2,4,4,TRUE,,,left,purple
102,28,psych,loc,2,28,24,2,4,4,4,TRUE,,,left,purple
102,29,psych,loc,2,29,41,4,1,3,3,TRUE,,,left,purple
102,30,psych,loc,2,30,13,1,3,3,3,TRUE,,,left,purple
102,31,psych,loc,2,31,14,1,4,3,1,FALSE,,,left,purple
102,32,psych,loc,2,32,31,3,1,1,2,FALSE,,,left,purple
102,33,psych,loc,3,33,23,2,3,2,2,TRUE,107.2,,left,purple
102,34,psych,loc,3,34,12,1,2,2,2,TRUE,107.2,,left,purple
102,35,psych,loc,3,35,32,3,2,1,1,TRUE,107.2,,left,purple
102,36,psych,loc,3,36,44,4,4,3,3,TRUE,,,left,purple
102,37,psych,loc,3,37,21,2,1,2,4,FALSE,,,left,purple
102,38,psych,loc,3,38,33,3,3,4,4,TRUE,170.6,,left,purple
102,39,psych,loc,3,39,31,3,1,3,3,TRUE,170.6,,left,purple
102,40,psych,loc,3,40,22,2,2,1,1,TRUE,170.6,,left,purple
102,41,psych,loc,3,41,14,1,4,4,4,TRUE,,,left,purple
102,42,psych,loc,3,42,24,2,4,2,2,TRUE,,,left,purple
102,43,psych,loc,3,43,13,1,3,4,4,TRUE,,,left,purple
102,44,psych,loc,3,44,42,4,2,3,3,TRUE,,,left,purple
102,45,psych,loc,3,45,41,4,1,1,1,TRUE,,,left,purple
102,46,psych,loc,3,46,43,4,3,1,1,TRUE,,,left,purple
102,47,psych,loc,3,47,34,3,4,2,2,TRUE,,,left,purple
102,48,psych,loc,3,48,11,1,1,2,2,TRUE,,,left,purple
102,49,train,loc,1,1,13,1,3,1,1,TRUE,,13551,left,purple
102,50,train,loc,1,2,24,2,4,4,4,TRUE,,7089,left,purple
102,51,train,loc,1,3,23,2,3,0,0,TRUE,,3396,left,purple
102,52,train,loc,1,4,14,1,4,0,0,TRUE,,9141,left,purple
102,53,train,loc,1,5,42,4,2,0,0,TRUE,,6022,left,purple
102,54,train,loc,1,6,32,3,2,2,2,TRUE,,5542,left,purple
102,55,train,loc,1,7,31,3,1,0,0,TRUE,,5696,left,purple
102,56,train,loc,1,8,41,4,1,3,3,TRUE,,7942,left,purple
102,57,train,loc,2,9,23,2,3,0,0,TRUE,,5442,left,purple
102,58,train,loc,2,10,42,4,2,0,0,TRUE,,3965,left,purple
102,59,train,loc,2,11,24,2,4,4,4,TRUE,,7313,left,purple
102,60,train,loc,2,12,13,1,3,1,1,TRUE,,3952,left,purple
102,61,train,loc,2,13,31,3,1,0,0,TRUE,,5086,left,purple
102,62,train,loc,2,14,32,3,2,2,2,TRUE,,3385,left,purple
102,63,train,loc,2,15,41,4,1,3,3,TRUE,,4129,left,purple
102,64,train,loc,2,16,14,1,4,0,0,TRUE,,3574,left,purple
102,65,train,loc,3,17,31,3,1,0,0,TRUE,,5860,left,purple
102,66,train,loc,3,18,32,3,2,2,2,TRUE,,3856,left,purple
102,67,train,loc,3,19,14,1,4,0,0,TRUE,,5110,left,purple
102,68,train,loc,3,20,42,4,2,0,0,TRUE,,4358,left,purple
102,69,train,loc,3,21,24,2,4,4,4,TRUE,,2778,left,purple
102,70,train,loc,3,22,23,2,3,0,0,TRUE,,3687,left,purple
102,71,train,loc,3,23,13,1,3,1,1,TRUE,,2486,left,purple
102,72,train,loc,3,24,41,4,1,3,3,TRUE,,5135,left,purple
102,73,train,crit,1,1,32,3,2,17,-1,FALSE,,-1,left,purple
102,74,train,crit,1,2,24,2,4,14,23,FALSE,,840,left,purple
102,75,train,crit,1,3,13,1,3,8,15,FALSE,,836,left,purple
102,76,train,crit,1,4,41,4,1,21,18,FALSE,,817,left,purple
102,77,train,crit,2,5,13,1,3,8,15,FALSE,,749,left,purple
102,78,train,crit,2,6,32,3,2,17,18,FALSE,,867,left,purple
102,79,train,crit,2,7,41,4,1,21,18,FALSE,,830,left,purple
102,80,train,crit,2,8,24,2,4,14,23,FALSE,,1326,left,purple
102,81,train,crit,3,9,41,4,1,21,18,FALSE,,862,left,purple
102,82,train,crit,3,10,32,3,2,17,10,FALSE,,792,left,purple
102,83,train,crit,3,11,24,2,4,14,23,FALSE,,906,left,purple
102,84,train,crit,3,12,13,1,3,8,8,TRUE,,1170,left,purple
102,85,train,crit,4,13,13,1,3,8,15,FALSE,,838,left,purple
102,86,train,crit,4,14,41,4,1,21,17,FALSE,,1183,left,purple
102,87,train,crit,4,15,32,3,2,17,14,FALSE,,921,left,purple
102,88,train,crit,4,16,24,2,4,14,24,FALSE,,1141,left,purple
102,89,train,crit,5,17,24,2,4,14,14,TRUE,,777,left,purple
102,90,train,crit,5,18,32,3,2,17,17,TRUE,,833,left,purple
102,91,train,crit,5,19,41,4,1,21,21,TRUE,,930,left,purple
102,92,train,crit,5,20,13,1,3,8,8,TRUE,,1338,left,purple
102,93,train,crit,6,21,24,2,4,14,14,TRUE,,987,left,purple
102,94,train,crit,6,22,13,1,3,8,8,TRUE,,999,left,purple
102,95,train,crit,6,23,32,3,2,17,17,TRUE,,783,left,purple
102,96,train,crit,6,24,41,4,1,21,21,TRUE,,684,left,purple
102,97,train,crit,7,25,32,3,2,17,17,TRUE,,769,left,purple
102,98,train,crit,7,26,41,4,1,21,21,TRUE,,682,left,purple
102,99,train,crit,7,27,13,1,3,8,8,TRUE,,1014,left,purple
102,100,train,crit,7,28,24,2,4,14,14,TRUE,,781,left,purple
102,101,test,crit,1,1,11,1,1,6,8,FALSE,243.49,1353,left,purple
102,102,test,crit,1,2,22,2,2,12,14,FALSE,243.49,1337,left,purple
102,103,test,crit,1,3,42,4,2,22,16,FALSE,243.49,884,left,purple
102,104,test,crit,1,4,12,1,2,7,21,FALSE,243.49,1107,left,purple
102,105,test,crit,1,5,23,2,3,13,14,FALSE,243.49,1277,left,purple
102,106,test,crit,1,6,24,2,4,14,14,TRUE,243.49,1855,left,purple
102,107,test,crit,1,7,34,3,4,19,22,FALSE,243.49,1039,left,purple
102,108,test,crit,1,8,32,3,2,17,21,FALSE,243.49,1021,left,purple
102,109,test,crit,1,9,13,1,3,8,8,TRUE,243.49,1355,left,purple
102,110,test,crit,1,10,21,2,1,11,17,FALSE,243.49,1380,left,purple
102,111,test,crit,1,11,33,3,3,18,18,TRUE,243.49,841,left,purple
102,112,test,crit,1,12,44,4,4,24,28,FALSE,243.49,908,left,purple
102,113,test,crit,1,13,43,4,3,23,24,FALSE,243.49,985,left,purple
102,114,test,crit,1,14,31,3,1,16,15,FALSE,243.49,779,left,purple
102,115,test,crit,1,15,41,4,1,21,17,FALSE,243.49,1333,left,purple
102,116,test,crit,1,16,14,1,4,9,19,FALSE,243.49,862,left,purple
102,117,test,crit,2,17,23,2,3,13,19,FALSE,243.49,1109,left,purple
102,118,test,crit,2,18,43,4,3,23,26,FALSE,243.49,924,left,purple
102,119,test,crit,2,19,44,4,4,24,30,FALSE,243.49,859,left,purple
102,120,test,crit,2,20,21,2,1,11,6,FALSE,243.49,763,left,purple
102,121,test,crit,2,21,24,2,4,14,21,FALSE,243.49,1586,left,purple
102,122,test,crit,2,22,12,1,2,7,9,FALSE,243.49,754,left,purple
102,123,test,crit,2,23,13,1,3,8,8,TRUE,243.49,1624,left,purple
102,124,test,crit,2,24,41,4,1,21,17,FALSE,243.49,784,left,purple
102,125,test,crit,2,25,33,3,3,18,25,FALSE,243.49,1062,left,purple
102,126,test,crit,2,26,42,4,2,22,21,FALSE,243.49,897,left,purple
102,127,test,crit,2,27,32,3,2,17,21,FALSE,243.49,1048,left,purple
102,128,test,crit,2,28,34,3,4,19,26,FALSE,243.49,776,left,purple
102,129,test,crit,2,29,22,2,2,12,15,FALSE,243.49,825,left,purple
102,130,test,crit,2,30,11,1,1,6,2,FALSE,243.49,817,left,purple
102,131,test,crit,2,31,31,3,1,16,13,FALSE,243.49,1073,left,purple
102,132,test,crit,2,32,14,1,4,9,19,FALSE,243.49,526,left,purple
102,133,test,crit,3,33,31,3,1,16,15,FALSE,243.49,752,left,purple
102,134,test,crit,3,34,32,3,2,17,-1,FALSE,243.49,-1,left,purple
102,135,test,crit,3,35,13,1,3,8,8,TRUE,243.49,1022,left,purple
102,136,test,crit,3,36,43,4,3,23,25,FALSE,243.49,904,left,purple
102,137,test,crit,3,37,14,1,4,9,20,FALSE,243.49,749,left,purple
102,138,test,crit,3,38,21,2,1,11,8,FALSE,243.49,1337,left,purple
102,139,test,crit,3,39,24,2,4,14,21,FALSE,243.49,1050,left,purple
102,140,test,crit,3,40,11,1,1,6,2,FALSE,243.49,881,left,purple
102,141,test,crit,3,41,23,2,3,13,19,FALSE,243.49,677,left,purple
102,142,test,crit,3,42,34,3,4,19,26,FALSE,243.49,777,left,purple
102,143,test,crit,3,43,22,2,2,12,15,FALSE,243.49,504,left,purple
102,144,test,crit,3,44,42,4,2,22,20,FALSE,243.49,517,left,purple
102,145,test,crit,3,45,33,3,3,18,18,TRUE,243.49,445,left,purple
102,146,test,crit,3,46,44,4,4,24,30,FALSE,243.49,832,left,purple
102,147,test,crit,3,47,12,1,2,7,11,FALSE,243.49,599,left,purple
102,148,test,crit,3,48,41,4,1,21,16,FALSE,243.49,1835,left,purple
102,149,test,crit,4,49,34,3,4,19,27,FALSE,243.49,800,left,purple
102,150,test,crit,4,50,24,2,4,14,14,TRUE,243.49,1020,left,purple
102,151,test,crit,4,51,21,2,1,11,9,FALSE,243.49,518,left,purple
102,152,test,crit,4,52,11,1,1,6,2,FALSE,243.49,1020,left,purple
102,153,test,crit,4,53,44,4,4,24,30,FALSE,243.49,477,left,purple
102,154,test,crit,4,54,42,4,2,22,22,TRUE,243.49,411,left,purple
102,155,test,crit,4,55,41,4,1,21,17,FALSE,243.49,880,left,purple
102,156,test,crit,4,56,12,1,2,7,9,FALSE,243.49,557,left,purple
102,157,test,crit,4,57,31,3,1,16,15,FALSE,243.49,721,left,purple
102,158,test,crit,4,58,32,3,2,17,21,FALSE,243.49,1463,left,purple
102,159,test,crit,4,59,23,2,3,13,18,FALSE,243.49,585,left,purple
102,160,test,crit,4,60,22,2,2,12,15,FALSE,243.49,948,left,purple
102,161,test,crit,4,61,13,1,3,8,15,FALSE,243.49,817,left,purple
102,162,test,crit,4,62,43,4,3,23,20,FALSE,243.49,752,left,purple
102,163,test,crit,4,63,14,1,4,9,20,FALSE,243.49,705,left,purple
102,164,test,crit,4,64,33,3,3,18,23,FALSE,243.49,755,left,purple
102,165,test,crit,5,65,24,2,4,14,14,TRUE,243.49,1006,left,purple
102,166,test,crit,5,66,13,1,3,8,8,TRUE,243.49,1215,left,purple
102,167,test,crit,5,67,43,4,3,23,23,TRUE,243.49,817,left,purple
102,168,test,crit,5,68,12,1,2,7,12,FALSE,243.49,472,left,purple
102,169,test,crit,5,69,42,4,2,22,16,FALSE,243.49,539,left,purple
102,170,test,crit,5,70,23,2,3,13,24,FALSE,243.49,578,left,purple
102,171,test,crit,5,71,14,1,4,9,19,FALSE,243.49,495,left,purple
102,172,test,crit,5,72,33,3,3,18,23,FALSE,243.49,797,left,purple
102,173,test,crit,5,73,34,3,4,19,19,TRUE,243.49,922,left,purple
102,174,test,crit,5,74,22,2,2,12,16,FALSE,243.49,1301,left,purple
102,175,test,crit,5,75,21,2,1,11,11,TRUE,243.49,1162,left,purple
102,176,test,crit,5,76,31,3,1,16,15,FALSE,243.49,1074,left,purple
102,177,test,crit,5,77,41,4,1,21,16,FALSE,243.49,683,left,purple
102,178,test,crit,5,78,44,4,4,24,30,FALSE,243.49,746,left,purple
102,179,test,crit,5,79,11,1,1,6,2,FALSE,243.49,1117,left,purple
102,180,test,crit,5,80,32,3,2,17,21,FALSE,243.49,840,left,purple
102,181,test,crit,6,81,34,3,4,19,13,FALSE,243.49,1041,left,purple
102,182,test,crit,6,82,43,4,3,23,24,FALSE,243.49,661,left,purple
102,183,test,crit,6,83,23,2,3,13,19,FALSE,243.49,449,left,purple
102,184,test,crit,6,84,11,1,1,6,2,FALSE,243.49,890,left,purple
102,185,test,crit,6,85,33,3,3,18,19,FALSE,243.49,327,left,purple
102,186,test,crit,6,86,24,2,4,14,14,TRUE,243.49,1426,left,purple
102,187,test,crit,6,87,41,4,1,21,16,FALSE,243.49,972,left,purple
102,188,test,crit,6,88,42,4,2,22,21,FALSE,243.49,566,left,purple
102,189,test,crit,6,89,32,3,2,17,21,FALSE,243.49,1820,left,purple
102,190,test,crit,6,90,13,1,3,8,8,TRUE,243.49,884,left,purple
102,191,test,crit,6,91,22,2,2,12,15,FALSE,243.49,890,left,purple
102,192,test,crit,6,92,21,2,1,11,12,FALSE,243.49,581,left,purple
102,193,test,crit,6,93,31,3,1,16,13,FALSE,243.49,1018,left,purple
102,194,test,crit,6,94,44,4,4,24,30,FALSE,243.49,974,left,purple
102,195,test,crit,6,95,14,1,4,9,20,FALSE,243.49,390,left,purple
102,196,test,crit,6,96,12,1,2,7,11,FALSE,243.49,682,left,purple
102,197,test,crit,7,97,23,2,3,13,20,FALSE,243.49,776,left,purple
102,198,test,crit,7,98,24,2,4,14,14,TRUE,243.49,1512,left,purple
102,199,test,crit,7,99,21,2,1,11,13,FALSE,243.49,330,left,purple
102,200,test,crit,7,100,41,4,1,21,16,FALSE,243.49,852,left,purple
102,201,test,crit,7,101,44,4,4,24,30,FALSE,243.49,920,left,purple
102,202,test,crit,7,102,12,1,2,7,13,FALSE,243.49,673,left,purple
102,203,test,crit,7,103,13,1,3,8,8,TRUE,243.49,489,left,purple
102,204,test,crit,7,104,14,1,4,9,19,FALSE,243.49,441,left,purple
102,205,test,crit,7,105,31,3,1,16,15,FALSE,243.49,684,left,purple
102,206,test,crit,7,106,43,4,3,23,20,FALSE,243.49,929,left,purple
102,207,test,crit,7,107,11,1,1,6,2,FALSE,243.49,837,left,purple
102,208,test,crit,7,108,42,4,2,22,16,FALSE,243.49,1537,left,purple
102,209,test,crit,7,109,32,3,2,17,21,FALSE,243.49,821,left,purple
102,210,test,crit,7,110,34,3,4,19,23,FALSE,243.49,647,left,purple
102,211,test,crit,7,111,22,2,2,12,21,FALSE,243.49,835,left,purple
102,212,test,crit,7,112,33,3,3,18,20,FALSE,243.49,597,left,purple
102,213,test,crit,8,113,13,1,3,8,8,TRUE,243.49,908,left,purple
102,214,test,crit,8,114,11,1,1,6,2,FALSE,243.49,992,left,purple
102,215,test,crit,8,115,31,3,1,16,15,FALSE,243.49,427,left,purple
102,216,test,crit,8,116,33,3,3,18,24,FALSE,243.49,646,left,purple
102,217,test,crit,8,117,12,1,2,7,8,FALSE,243.49,948,left,purple
102,218,test,crit,8,118,32,3,2,17,21,FALSE,243.49,1479,left,purple
102,219,test,crit,8,119,21,2,1,11,9,FALSE,243.49,1003,left,purple
102,220,test,crit,8,120,22,2,2,12,15,FALSE,243.49,821,left,purple
102,221,test,crit,8,121,42,4,2,22,24,FALSE,243.49,1149,left,purple
102,222,test,crit,8,122,44,4,4,24,30,FALSE,243.49,828,left,purple
102,223,test,crit,8,123,24,2,4,14,14,TRUE,243.49,742,left,purple
102,224,test,crit,8,124,43,4,3,23,25,FALSE,243.49,1002,left,purple
102,225,test,crit,8,125,41,4,1,21,16,FALSE,243.49,1064,left,purple
102,226,test,crit,8,126,14,1,4,9,19,FALSE,243.49,405,left,purple
102,227,test,crit,8,127,34,3,4,19,25,FALSE,243.49,737,left,purple
102,228,test,crit,8,128,23,2,3,13,19,FALSE,243.49,591,left,purple
102,229,test,loc,1,1,42,4,2,0,0,TRUE,,7261,left,purple
102,230,test,loc,1,2,31,3,1,0,0,TRUE,,1369,left,purple
102,231,test,loc,1,3,24,2,4,4,4,TRUE,,2487,left,purple
102,232,test,loc,1,4,14,1,4,0,0,TRUE,,5969,left,purple
102,233,test,loc,1,5,41,4,1,3,3,TRUE,,2612,left,purple
102,234,test,loc,1,6,13,1,3,1,1,TRUE,,2610,left,purple
102,235,test,loc,1,7,32,3,2,2,2,TRUE,,5041,left,purple
102,236,test,loc,1,8,23,2,3,0,0,TRUE,,4561,left,purple
103,1,psych,loc,1,1,41,4,1,4,3,FALSE,2000,,left,green
103,2,psych,loc,1,2,31,3,1,1,1,TRUE,2400,,left,green
103,3,psych,loc,1,3,12,1,2,2,2,TRUE,2400,,left,green
103,4,psych,loc,1,4,22,2,2,2,2,TRUE,2400,,left,green
103,5,psych,loc,1,5,14,1,4,4,4,TRUE,2400,,left,green
103,6,psych,loc,1,6,43,4,3,4,4,TRUE,2063.4,,left,green
103,7,psych,loc,1,7,21,2,1,2,2,TRUE,2063.4,,left,green
103,8,psych,loc,1,8,33,3,3,3,3,TRUE,2063.4,,left,green
103,9,psych,loc,1,9,23,2,3,4,4,TRUE,2063.4,,left,green
103,10,psych,loc,1,10,34,3,4,1,1,TRUE,1726.8,,left,green
103,11,psych,loc,1,11,13,1,3,4,4,TRUE,1726.8,,left,green
103,12,psych,loc,1,12,32,3,2,3,3,TRUE,1726.8,,left,green
103,13,psych,loc,1,13,44,4,4,3,3,TRUE,1726.8,,left,green
103,14,psych,loc,1,14,11,1,1,2,2,TRUE,1390.2,,left,green
103,15,psych,loc,1,15,24,2,4,2,2,TRUE,1390.2,,left,green
103,16,psych,loc,1,16,42,4,2,1,1,TRUE,1390.2,,left,green
103,17,psych,loc,2,17,12,1,2,2,2,TRUE,1390.2,,left,green
103,18,psych,loc,2,18,14,1,4,2,2,TRUE,1053.6,,left,green
103,19,psych,loc,2,19,23,2,3,2,2,TRUE,1053.6,,left,green
103,20,psych,loc,2,20,13,1,3,1,1,TRUE,1053.6,,left,green
103,21,psych,loc,2,21,22,2,2,4,4,TRUE,1053.6,,left,green
103,22,psych,loc,2,22,44,4,4,4,4,TRUE,717,,left,green
103,23,psych,loc,2,23,43,4,3,3,3,TRUE,717,,left,green
103,24,psych,loc,2,24,31,3,1,4,4,TRUE,717,,left,green
103,25,psych,loc,2,25,32,3,2,2,2,TRUE,717,,left,green
103,26,psych,loc,2,26,34,3,4,1,1,TRUE,380.4,,left,green
103,27,psych,loc,2,27,11,1,1,4,4,TRUE,380.4,,left,green
103,28,psych,loc,2,28,33,3,3,3,3,TRUE,380.4,,left,green
103,29,psych,loc,2,29,24,2,4,2,2,TRUE,380.4,,left,green
103,30,psych,loc,2,30,42,4,2,4,4,TRUE,43.8,,left,green
103,31,psych,loc,2,31,41,4,1,1,1,TRUE,43.8,,left,green
103,32,psych,loc,2,32,21,2,1,1,4,FALSE,43.8,,left,green
103,33,psych,loc,3,33,23,2,3,4,4,TRUE,443.8,,left,green
103,34,psych,loc,3,34,14,1,4,4,4,TRUE,443.8,,left,green
103,35,psych,loc,3,35,13,1,3,4,4,TRUE,107.2,,left,green
103,36,psych,loc,3,36,21,2,1,2,2,TRUE,107.2,,left,green
103,37,psych,loc,3,37,34,3,4,1,4,FALSE,107.2,,left,green
103,38,psych,loc,3,38,43,4,3,3,3,TRUE,507.2,,left,green
103,39,psych,loc,3,39,24,2,4,3,3,TRUE,507.2,,left,green
103,40,psych,loc,3,40,44,4,4,2,2,TRUE,170.6,,left,green
103,41,psych,loc,3,41,32,3,2,1,1,TRUE,170.6,,left,green
103,42,psych,loc,3,42,11,1,1,3,3,TRUE,170.6,,left,green
103,43,psych,loc,3,43,42,4,2,3,3,TRUE,170.6,,left,green
103,44,psych,loc,3,44,22,2,2,4,2,FALSE,,,left,green
103,45,psych,loc,3,45,31,3,1,3,3,TRUE,234,,left,green
103,46,psych,loc,3,46,12,1,2,4,4,TRUE,234,,left,green
103,47,psych,loc,3,47,33,3,3,4,2,FALSE,234,,left,green
103,48,psych,loc,3,48,41,4,1,3,3,TRUE,634,,left,green
103,49,train,loc,1,1,42,4,2,0,2,FALSE,,2448,left,green
103,50,train,loc,1,2,41,4,1,2,2,TRUE,,1965,left,green
103,51,train,loc,1,3,14,1,4,0,3,FALSE,,3647,left,green
103,52,train,loc,1,4,13,1,3,1,1,TRUE,,2198,left,green
103,53,train,loc,1,5,23,2,3,0,0,TRUE,,2811,left,green
103,54,train,loc,1,6,32,3,2,4,3,FALSE,,1590,left,green
103,55,train,loc,1,7,31,3,1,0,1,FALSE,,1631,left,green
103,56,train,loc,1,8,24,2,4,3,4,FALSE,,2176,left,green
103,57,train,loc,2,9,32,3,2,4,2,FALSE,,3111,left,green
103,58,train,loc,2,10,14,1,4,0,1,FALSE,,3690,left,green
103,59,train,loc,2,11,24,2,4,3,3,TRUE,,2452,left,green
103,60,train,loc,2,12,13,1,3,1,1,TRUE,,5648,left,green
103,61,train,loc,2,13,31,3,1,0,0,TRUE,,2156,left,green
103,62,train,loc,2,14,23,2,3,0,2,FALSE,,2579,left,green
103,63,train,loc,2,15,42,4,2,0,0,TRUE,,2252,left,green
103,64,train,loc,2,16,41,4,1,2,4,FALSE,,3388,left,green
103,65,train,loc,3,17,41,4,1,2,2,TRUE,,4976,left,green
103,66,train,loc,3,18,32,3,2,4,4,TRUE,,1757,left,green
103,67,train,loc,3,19,31,3,1,0,0,TRUE,,2362,left,green
103,68,train,loc,3,20,24,2,4,3,3,TRUE,,1977,left,green
103,69,train,loc,3,21,13,1,3,1,1,TRUE,,2743,left,green
103,70,train,loc,3,22,23,2,3,0,0,TRUE,,2189,left,green
103,71,train,loc,3,23,42,4,2,0,0,TRUE,,4906,left,green
103,72,train,loc,3,24,14,1,4,0,0,TRUE,,3878,left,green
103,73,train,loc,4,25,14,1,4,0,0,TRUE,,4387,left,green
103,74,train,loc,4,26,32,3,2,4,4,TRUE,,2661,left,green
103,75,train,loc,4,27,42,4,2,0,0,TRUE,,2987,left,green
103,76,train,loc,4,28,41,4,1,2,2,TRUE,,2357,left,green
103,77,train,loc,4,29,13,1,3,1,1,TRUE,,2192,left,green
103,78,train,loc,4,30,24,2,4,3,3,TRUE,,3286,left,green
103,79,train,loc,4,31,31,3,1,0,0,TRUE,,2087,left,green
103,80,train,loc,4,32,23,2,3,0,0,TRUE,,2223,left,green
103,81,train,loc,5,33,32,3,2,4,4,TRUE,,1920,left,green
103,82,train,loc,5,34,24,2,4,3,0,FALSE,,2367,left,green
103,83,train,loc,5,35,31,3,1,0,0,TRUE,,2654,left,green
103,84,train,loc,5,36,13,1,3,1,1,TRUE,,2179,left,green
103,85,train,loc,5,37,23,2,3,0,0,TRUE,,1893,left,green
103,86,train,loc,5,38,14,1,4,0,0,TRUE,,5655,left,green
103,87,train,loc,5,39,42,4,2,0,0,TRUE,,2199,left,green
103,88,train,loc,5,40,41,4,1,2,2,TRUE,,5446,left,green
103,89,train,loc,6,41,14,1,4,0,0,TRUE,,2518,left,green
103,90,train,loc,6,42,13,1,3,1,1,TRUE,,1977,left,green
103,91,train,loc,6,43,23,2,3,0,0,TRUE,,1847,left,green
103,92,train,loc,6,44,24,2,4,3,3,TRUE,,2788,left,green
103,93,train,loc,6,45,41,4,1,2,2,TRUE,,2046,left,green
103,94,train,loc,6,46,42,4,2,0,0,TRUE,,1994,left,green
103,95,train,loc,6,47,31,3,1,0,0,TRUE,,3160,left,green
103,96,train,loc,6,48,32,3,2,4,4,TRUE,,1561,left,green
103,97,train,crit,1,1,32,3,2,17,-1,FALSE,,-1,left,green
103,98,train,crit,1,2,13,1,3,8,15,FALSE,,758,left,green
103,99,train,crit,1,3,24,2,4,14,16,FALSE,,874,left,green
103,100,train,crit,1,4,41,4,1,21,18,FALSE,,797,left,green
103,101,train,crit,2,5,32,3,2,17,15,FALSE,,1074,left,green
103,102,train,crit,2,6,41,4,1,21,21,TRUE,,1129,left,green
103,103,train,crit,2,7,24,2,4,14,14,TRUE,,809,left,green
103,104,train,crit,2,8,13,1,3,8,8,TRUE,,1461,left,green
103,105,train,crit,3,9,13,1,3,8,7,FALSE,,1618,left,green
103,106,train,crit,3,10,41,4,1,21,21,TRUE,,1628,left,green
103,107,train,crit,3,11,32,3,2,17,17,TRUE,,818,left,green
103,108,train,crit,3,12,24,2,4,14,14,TRUE,,920,left,green
103,109,train,crit,4,13,24,2,4,14,14,TRUE,,796,left,green
103,110,train,crit,4,14,41,4,1,21,21,TRUE,,1106,left,green
103,111,train,crit,4,15,32,3,2,17,17,TRUE,,1155,left,green
103,112,train,crit,4,16,13,1,3,8,8,TRUE,,1339,left,green
103,113,train,crit,5,17,24,2,4,14,14,TRUE,,732,left,green
103,114,train,crit,5,18,13,1,3,8,8,TRUE,,1295,left,green
103,115,train,crit,5,19,41,4,1,21,21,TRUE,,983,left,green
103,116,train,crit,5,20,32,3,2,17,17,TRUE,,754,left,green
103,117,train,crit,6,21,24,2,4,14,14,TRUE,,694,left,green
103,118,train,crit,6,22,32,3,2,17,17,TRUE,,649,left,green
103,119,train,crit,6,23,13,1,3,8,8,TRUE,,1232,left,green
103,120,train,crit,6,24,41,4,1,21,21,TRUE,,1197,left,green
103,121,test,crit,1,1,33,3,3,18,18,TRUE,679.85,785,left,green
103,122,test,crit,1,2,41,4,1,21,21,TRUE,679.85,833,left,green
103,123,test,crit,1,3,34,3,4,19,19,TRUE,679.85,1661,left,green
103,124,test,crit,1,4,21,2,1,11,11,TRUE,679.85,1625,left,green
103,125,test,crit,1,5,22,2,2,12,12,TRUE,679.85,1341,left,green
103,126,test,crit,1,6,43,4,3,23,-1,FALSE,679.85,-1,left,green
103,127,test,crit,1,7,14,1,4,9,9,TRUE,679.85,958,left,green
103,128,test,crit,1,8,32,3,2,17,17,TRUE,679.85,926,left,green
103,129,test,crit,1,9,13,1,3,8,8,TRUE,679.85,1301,left,green
103,130,test,crit,1,10,31,3,1,16,16,TRUE,679.85,1023,left,green
103,131,test,crit,1,11,23,2,3,13,13,TRUE,679.85,834,left,green
103,132,test,crit,1,12,44,4,4,24,24,TRUE,679.85,1325,left,green
103,133,test,crit,1,13,42,4,2,22,22,TRUE,679.85,1387,left,green
103,134,test,crit,1,14,11,1,1,6,6,TRUE,679.85,1942,left,green
103,135,test,crit,1,15,24,2,4,14,14,TRUE,679.85,1081,left,green
103,136,test,crit,1,16,12,1,2,7,7,TRUE,679.85,873,left,green
103,137,test,crit,2,17,21,2,1,11,11,TRUE,679.85,927,left,green
103,138,test,crit,2,18,43,4,3,23,22,FALSE,679.85,1060,left,green
103,139,test,crit,2,19,41,4,1,21,21,TRUE,679.85,900,left,green
103,140,test,crit,2,20,42,4,2,22,22,TRUE,679.85,1412,left,green
103,141,test,crit,2,21,23,2,3,13,13,TRUE,679.85,873,left,green
103,142,test,crit,2,22,34,3,4,19,19,TRUE,679.85,819,left,green
103,143,test,crit,2,23,33,3,3,18,18,TRUE,679.85,927,left,green
103,144,test,crit,2,24,44,4,4,24,24,TRUE,679.85,1151,left,green
103,145,test,crit,2,25,31,3,1,16,16,TRUE,679.85,828,left,green
103,146,test,crit,2,26,14,1,4,9,9,TRUE,679.85,1500,left,green
103,147,test,crit,2,27,12,1,2,7,7,TRUE,679.85,1099,left,green
103,148,test,crit,2,28,24,2,4,14,14,TRUE,679.85,923,left,green
103,149,test,crit,2,29,22,2,2,12,12,TRUE,679.85,725,left,green
103,150,test,crit,2,30,13,1,3,8,8,TRUE,679.85,1084,left,green
103,151,test,crit,2,31,11,1,1,6,6,TRUE,679.85,1078,left,green
103,152,test,crit,2,32,32,3,2,17,17,TRUE,679.85,1068,left,green
103,153,test,crit,3,33,11,1,1,6,6,TRUE,679.85,933,left,green
103,154,test,crit,3,34,32,3,2,17,17,TRUE,679.85,1019,left,green
103,155,test,crit,3,35,41,4,1,21,21,TRUE,679.85,1463,left,green
103,156,test,crit,3,36,12,1,2,7,7,TRUE,679.85,1075,left,green
103,157,test,crit,3,37,22,2,2,12,12,TRUE,679.85,843,left,green
103,158,test,crit,3,38,43,4,3,23,23,TRUE,679.85,1683,left,green
103,159,test,crit,3,39,21,2,1,11,11,TRUE,679.85,871,left,green
103,160,test,crit,3,40,31,3,1,16,16,TRUE,679.85,1112,left,green
103,161,test,crit,3,41,44,4,4,24,24,TRUE,679.85,933,left,green
103,162,test,crit,3,42,14,1,4,9,9,TRUE,679.85,1209,left,green
103,163,test,crit,3,43,13,1,3,8,8,TRUE,679.85,1202,left,green
103,164,test,crit,3,44,33,3,3,18,18,TRUE,679.85,1140,left,green
103,165,test,crit,3,45,23,2,3,13,13,TRUE,679.85,875,left,green
103,166,test,crit,3,46,42,4,2,22,22,TRUE,679.85,1160,left,green
103,167,test,crit,3,47,24,2,4,14,14,TRUE,679.85,1098,left,green
103,168,test,crit,3,48,34,3,4,19,19,TRUE,679.85,728,left,green
103,169,test,crit,4,49,34,3,4,19,19,TRUE,679.85,963,left,green
103,170,test,crit,4,50,12,1,2,7,7,TRUE,679.85,1266,left,green
103,171,test,crit,4,51,42,4,2,22,22,TRUE,679.85,1663,left,green
103,172,test,crit,4,52,24,2,4,14,14,TRUE,679.85,1068,left,green
103,173,test,crit,4,53,13,1,3,8,8,TRUE,679.85,1152,left,green
103,174,test,crit,4,54,21,2,1,11,11,TRUE,679.85,1239,left,green
103,175,test,crit,4,55,43,4,3,23,23,TRUE,679.85,1418,left,green
103,176,test,crit,4,56,23,2,3,13,13,TRUE,679.85,1039,left,green
103,177,test,crit,4,57,14,1,4,9,9,TRUE,679.85,1069,left,green
103,178,test,crit,4,58,11,1,1,6,6,TRUE,679.85,838,left,green
103,179,test,crit,4,59,41,4,1,21,21,TRUE,679.85,1343,left,green
103,180,test,crit,4,60,22,2,2,12,22,FALSE,679.85,1539,left,green
103,181,test,crit,4,61,31,3,1,16,16,TRUE,679.85,771,left,green
103,182,test,crit,4,62,33,3,3,18,18,TRUE,679.85,1117,left,green
103,183,test,crit,4,63,32,3,2,17,17,TRUE,679.85,832,left,green
103,184,test,crit,4,64,44,4,4,24,24,TRUE,679.85,1069,left,green
103,185,test,crit,5,65,23,2,3,13,13,TRUE,679.85,811,left,green
103,186,test,crit,5,66,21,2,1,11,11,TRUE,679.85,1017,left,green
103,187,test,crit,5,67,42,4,2,22,22,TRUE,679.85,1285,left,green
103,188,test,crit,5,68,13,1,3,8,8,TRUE,679.85,1155,left,green
103,189,test,crit,5,69,12,1,2,7,7,TRUE,679.85,1021,left,green
103,190,test,crit,5,70,44,4,4,24,24,TRUE,679.85,783,left,green
103,191,test,crit,5,71,32,3,2,17,17,TRUE,679.85,919,left,green
103,192,test,crit,5,72,22,2,2,12,12,TRUE,679.85,1203,left,green
103,193,test,crit,5,73,43,4,3,23,23,TRUE,679.85,1254,left,green
103,194,test,crit,5,74,24,2,4,14,14,TRUE,679.85,861,left,green
103,195,test,crit,5,75,11,1,1,6,6,TRUE,679.85,910,left,green
103,196,test,crit,5,76,31,3,1,16,16,TRUE,679.85,930,left,green
103,197,test,crit,5,77,33,3,3,18,18,TRUE,679.85,895,left,green
103,198,test,crit,5,78,14,1,4,9,8,FALSE,679.85,1244,left,green
103,199,test,crit,5,79,34,3,4,19,19,TRUE,679.85,1048,left,green
103,200,test,crit,5,80,41,4,1,21,21,TRUE,679.85,1452,left,green
103,201,test,crit,6,81,34,3,4,19,19,TRUE,679.85,1289,left,green
103,202,test,crit,6,82,33,3,3,18,18,TRUE,679.85,671,left,green
103,203,test,crit,6,83,14,1,4,9,9,TRUE,679.85,1144,left,green
103,204,test,crit,6,84,41,4,1,21,21,TRUE,679.85,1835,left,green
103,205,test,crit,6,85,31,3,1,16,16,TRUE,679.85,1513,left,green
103,206,test,crit,6,86,13,1,3,8,8,TRUE,679.85,976,left,green
103,207,test,crit,6,87,23,2,3,13,13,TRUE,679.85,1133,left,green
103,208,test,crit,6,88,24,2,4,14,14,TRUE,679.85,1293,left,green
103,209,test,crit,6,89,42,4,2,22,22,TRUE,679.85,861,left,green
103,210,test,crit,6,90,44,4,4,24,24,TRUE,679.85,897,left,green
103,211,test,crit,6,91,43,4,3,23,23,TRUE,679.85,841,left,green
103,212,test,crit,6,92,32,3,2,17,17,TRUE,679.85,680,left,green
103,213,test,crit,6,93,21,2,1,11,11,TRUE,679.85,1049,left,green
103,214,test,crit,6,94,11,1,1,6,6,TRUE,679.85,975,left,green
103,215,test,crit,6,95,12,1,2,7,7,TRUE,679.85,904,left,green
103,216,test,crit,6,96,22,2,2,12,12,TRUE,679.85,952,left,green
103,217,test,crit,7,97,41,4,1,21,21,TRUE,679.85,1211,left,green
103,218,test,crit,7,98,13,1,3,8,8,TRUE,679.85,1521,left,green
103,219,test,crit,7,99,34,3,4,19,19,TRUE,679.85,1222,left,green
103,220,test,crit,7,100,11,1,1,6,6,TRUE,679.85,1262,left,green
103,221,test,crit,7,101,32,3,2,17,17,TRUE,679.85,1040,left,green
103,222,test,crit,7,102,22,2,2,12,12,TRUE,679.85,1508,left,green
103,223,test,crit,7,103,31,3,1,16,16,TRUE,679.85,778,left,green
103,224,test,crit,7,104,24,2,4,14,14,TRUE,679.85,797,left,green
103,225,test,crit,7,105,43,4,3,23,23,TRUE,679.85,815,left,green
103,226,test,crit,7,106,42,4,2,22,22,TRUE,679.85,1416,left,green
103,227,test,crit,7,107,12,1,2,7,7,TRUE,679.85,1543,left,green
103,228,test,crit,7,108,21,2,1,11,11,TRUE,679.85,976,left,green
103,229,test,crit,7,109,23,2,3,13,13,TRUE,679.85,725,left,green
103,230,test,crit,7,110,33,3,3,18,18,TRUE,679.85,790,left,green
103,231,test,crit,7,111,14,1,4,9,9,TRUE,679.85,966,left,green
103,232,test,crit,7,112,44,4,4,24,24,TRUE,679.85,899,left,green
103,233,test,crit,8,113,31,3,1,16,16,TRUE,679.85,956,left,green
103,234,test,crit,8,114,41,4,1,21,21,TRUE,679.85,994,left,green
103,235,test,crit,8,115,13,1,3,8,9,FALSE,679.85,1030,left,green
103,236,test,crit,8,116,43,4,3,23,23,TRUE,679.85,987,left,green
103,237,test,crit,8,117,21,2,1,11,11,TRUE,679.85,806,left,green
103,238,test,crit,8,118,12,1,2,7,7,TRUE,679.85,1338,left,green
103,239,test,crit,8,119,44,4,4,24,24,TRUE,679.85,833,left,green
103,240,test,crit,8,120,34,3,4,19,19,TRUE,679.85,467,left,green
103,241,test,crit,8,121,24,2,4,14,14,TRUE,679.85,863,left,green
103,242,test,crit,8,122,32,3,2,17,17,TRUE,679.85,742,left,green
103,243,test,crit,8,123,42,4,2,22,22,TRUE,679.85,1131,left,green
103,244,test,crit,8,124,22,2,2,12,12,TRUE,679.85,875,left,green
103,245,test,crit,8,125,11,1,1,6,6,TRUE,679.85,1010,left,green
103,246,test,crit,8,126,33,3,3,18,18,TRUE,679.85,760,left,green
103,247,test,crit,8,127,14,1,4,9,9,TRUE,679.85,1200,left,green
103,248,test,crit,8,128,23,2,3,13,13,TRUE,679.85,886,left,green
103,249,test,loc,1,1,41,4,1,2,2,TRUE,,2748,left,green
103,250,test,loc,1,2,31,3,1,0,0,TRUE,,1811,left,green
103,251,test,loc,1,3,42,4,2,0,0,TRUE,,2079,left,green
103,252,test,loc,1,4,32,3,2,4,4,TRUE,,1879,left,green
103,253,test,loc,1,5,14,1,4,0,0,TRUE,,4508,left,green
103,254,test,loc,1,6,23,2,3,0,0,TRUE,,2391,left,green
103,255,test,loc,1,7,13,1,3,1,1,TRUE,,1359,left,green
103,256,test,loc,1,8,24,2,4,3,0,FALSE,,2384,left,green
104,1,psych,loc,1,1,41,4,1,1,3,FALSE,2000,,left,green
104,2,psych,loc,1,2,11,1,1,1,1,TRUE,2400,,left,green
104,3,psych,loc,1,3,24,2,4,1,1,TRUE,2400,,left,green
104,4,psych,loc,1,4,34,3,4,2,2,TRUE,2400,,left,green
104,5,psych,loc,1,5,42,4,2,2,2,TRUE,2400,,left,green
104,6,psych,loc,1,6,22,2,2,4,4,TRUE,2063.4,,left,green
104,7,psych,loc,1,7,44,4,4,2,2,TRUE,2063.4,,left,green
104,8,psych,loc,1,8,13,1,3,4,4,TRUE,2063.4,,left,green
104,9,psych,loc,1,9,12,1,2,1,1,TRUE,2063.4,,left,green
104,10,psych,loc,1,10,14,1,4,4,4,TRUE,1726.8,,left,green
104,11,psych,loc,1,11,43,4,3,4,4,TRUE,1726.8,,left,green
104,12,psych,loc,1,12,33,3,3,1,4,FALSE,1726.8,,left,green
104,13,psych,loc,1,13,21,2,1,4,4,TRUE,2126.8,,left,green
104,14,psych,loc,1,14,23,2,3,1,1,TRUE,2126.8,,left,green
104,15,psych,loc,1,15,32,3,2,2,2,TRUE,1790.2,,left,green
104,16,psych,loc,1,16,31,3,1,2,2,TRUE,1790.2,,left,green
104,17,psych,loc,2,17,14,1,4,1,1,TRUE,1790.2,,left,green
104,18,psych,loc,2,18,21,2,1,1,1,TRUE,1790.2,,left,green
104,19,psych,loc,2,19,22,2,2,4,4,TRUE,1453.6,,left,green
104,20,psych,loc,2,20,43,4,3,3,3,TRUE,1453.6,,left,green
104,21,psych,loc,2,21,12,1,2,2,2,TRUE,1453.6,,left,green
104,22,psych,loc,2,22,34,3,4,2,2,TRUE,1453.6,,left,green
104,23,psych,loc,2,23,32,3,2,1,1,TRUE,1117,,left,green
104,24,psych,loc,2,24,13,1,3,3,3,TRUE,1117,,left,green
104,25,psych,loc,2,25,44,4,4,3,3,TRUE,1117,,left,green
104,26,psych,loc,2,26,11,1,1,4,4,TRUE,1117,,left,green
104,27,psych,loc,2,27,42,4,2,1,1,TRUE,780.4,,left,green
104,28,psych,loc,2,28,41,4,1,3,3,TRUE,780.4,,left,green
104,29,psych,loc,2,29,33,3,3,2,2,TRUE,780.4,,left,green
104,30,psych,loc,2,30,31,3,1,2,2,TRUE,780.4,,left,green
104,31,psych,loc,2,31,24,2,4,3,1,FALSE,443.8,,left,green
104,32,psych,loc,2,32,23,2,3,3,3,TRUE,843.8,,left,green
104,33,psych,loc,3,33,34,3,4,2,2,TRUE,843.8,,left,green
104,34,psych,loc,3,34,42,4,2,1,1,TRUE,843.8,,left,green
104,35,psych,loc,3,35,41,4,1,3,3,TRUE,843.8,,left,green
104,36,psych,loc,3,36,31,3,1,4,1,FALSE,507.2,,left,green
104,37,psych,loc,3,37,11,1,1,2,2,TRUE,907.2,,left,green
104,38,psych,loc,3,38,22,2,2,2,2,TRUE,907.2,,left,green
104,39,psych,loc,3,39,33,3,3,2,2,TRUE,907.2,,left,green
104,40,psych,loc,3,40,13,1,3,3,3,TRUE,907.2,,left,green
104,41,psych,loc,3,41,14,1,4,4,2,FALSE,570.6,,left,green
104,42,psych,loc,3,42,43,4,3,4,4,TRUE,970.6,,left,green
104,43,psych,loc,3,43,21,2,1,3,3,TRUE,970.6,,left,green
104,44,psych,loc,3,44,23,2,3,2,2,TRUE,970.6,,left,green
104,45,psych,loc,3,45,24,2,4,1,1,TRUE,970.6,,left,green
104,46,psych,loc,3,46,44,4,4,1,1,TRUE,634,,left,green
104,47,psych,loc,3,47,12,1,2,4,4,TRUE,634,,left,green
104,48,psych,loc,3,48,32,3,2,1,1,TRUE,634,,left,green
104,49,train,loc,1,1,24,2,4,3,3,TRUE,,3093,left,green
104,50,train,loc,1,2,41,4,1,4,4,TRUE,,8295,left,green
104,51,train,loc,1,3,32,3,2,2,2,TRUE,,835,left,green
104,52,train,loc,1,4,23,2,3,0,0,TRUE,,8809,left,green
104,53,train,loc,1,5,14,1,4,0,0,TRUE,,13154,left,green
104,54,train,loc,1,6,13,1,3,1,1,TRUE,,6223,left,green
104,55,train,loc,1,7,31,3,1,0,0,TRUE,,8436,left,green
104,56,train,loc,1,8,42,4,2,0,0,TRUE,,13432,left,green
104,57,train,loc,2,9,42,4,2,0,0,TRUE,,6286,left,green
104,58,train,loc,2,10,41,4,1,4,4,TRUE,,7264,left,green
104,59,train,loc,2,11,24,2,4,3,3,TRUE,,3611,left,green
104,60,train,loc,2,12,32,3,2,2,2,TRUE,,3842,left,green
104,61,train,loc,2,13,23,2,3,0,0,TRUE,,4156,left,green
104,62,train,loc,2,14,14,1,4,0,0,TRUE,,4687,left,green
104,63,train,loc,2,15,13,1,3,1,1,TRUE,,4525,left,green
104,64,train,loc,2,16,31,3,1,0,0,TRUE,,3374,left,green
104,65,train,loc,3,17,13,1,3,1,1,TRUE,,4291,left,green
104,66,train,loc,3,18,23,2,3,0,0,TRUE,,3286,left,green
104,67,train,loc,3,19,24,2,4,3,3,TRUE,,2130,left,green
104,68,train,loc,3,20,31,3,1,0,0,TRUE,,3498,left,green
104,69,train,loc,3,21,14,1,4,0,0,TRUE,,2848,left,green
104,70,train,loc,3,22,32,3,2,2,2,TRUE,,3710,left,green
104,71,train,loc,3,23,41,4,1,4,4,TRUE,,2698,left,green
104,72,train,loc,3,24,42,4,2,0,0,TRUE,,5054,left,green
104,73,train,crit,1,1,24,2,4,14,-1,FALSE,,-1,left,green
104,74,train,crit,1,2,13,1,3,8,17,FALSE,,930,left,green
104,75,train,crit,1,3,32,3,2,17,10,FALSE,,973,left,green
104,76,train,crit,1,4,41,4,1,21,11,FALSE,,1007,left,green
104,77,train,crit,2,5,41,4,1,21,21,TRUE,,1165,left,green
104,78,train,crit,2,6,13,1,3,8,8,TRUE,,1101,left,green
104,79,train,crit,2,7,32,3,2,17,17,TRUE,,847,left,green
104,80,train,crit,2,8,24,2,4,14,19,FALSE,,1020,left,green
104,81,train,crit,3,9,41,4,1,21,21,TRUE,,966,left,green
104,82,train,crit,3,10,24,2,4,14,14,TRUE,,1098,left,green
104,83,train,crit,3,11,32,3,2,17,17,TRUE,,1097,left,green
104,84,train,crit,3,12,13,1,3,8,8,TRUE,,1155,left,green
104,85,train,crit,4,13,32,3,2,17,17,TRUE,,1184,left,green
104,86,train,crit,4,14,41,4,1,21,21,TRUE,,970,left,green
104,87,train,crit,4,15,24,2,4,14,14,TRUE,,1366,left,green
104,88,train,crit,4,16,13,1,3,8,8,TRUE,,873,left,green
104,89,train,crit,5,17,24,2,4,14,14,TRUE,,1177,left,green
104,90,train,crit,5,18,13,1,3,8,8,TRUE,,1613,left,green
104,91,train,crit,5,19,32,3,2,17,17,TRUE,,1061,left,green
104,92,train,crit,5,20,41,4,1,21,21,TRUE,,1121,left,green
104,93,test,crit,1,1,22,2,2,12,16,FALSE,1138.24,730,left,green
104,94,test,crit,1,2,23,2,3,13,12,FALSE,1138.24,1289,left,green
104,95,test,crit,1,3,32,3,2,17,17,TRUE,1138.24,789,left,green
104,96,test,crit,1,4,34,3,4,19,15,FALSE,1138.24,1026,left,green
104,97,test,crit,1,5,44,4,4,24,17,FALSE,1138.24,933,left,green
104,98,test,crit,1,6,14,1,4,9,12,FALSE,1138.24,843,left,green
104,99,test,crit,1,7,31,3,1,16,15,FALSE,1138.24,856,left,green
104,100,test,crit,1,8,41,4,1,21,12,FALSE,1138.24,1028,left,green
104,101,test,crit,1,9,42,4,2,22,19,FALSE,1138.24,990,left,green
104,102,test,crit,1,10,12,1,2,7,13,FALSE,1138.24,1183,left,green
104,103,test,crit,1,11,43,4,3,23,11,FALSE,1138.24,709,left,green
104,104,test,crit,1,12,13,1,3,8,11,FALSE,1138.24,901,left,green
104,105,test,crit,1,13,33,3,3,18,12,FALSE,1138.24,1051,left,green
104,106,test,crit,1,14,11,1,1,6,15,FALSE,1138.24,873,left,green
104,107,test,crit,1,15,21,2,1,11,16,FALSE,1138.24,820,left,green
104,108,test,crit,1,16,24,2,4,14,19,FALSE,1138.24,873,left,green
104,109,test,crit,2,17,23,2,3,13,13,TRUE,1138.24,1129,left,green
104,110,test,crit,2,18,32,3,2,17,17,TRUE,1138.24,505,left,green
104,111,test,crit,2,19,41,4,1,21,21,TRUE,1138.24,1069,left,green
104,112,test,crit,2,20,13,1,3,8,8,TRUE,1138.24,1322,left,green
104,113,test,crit,2,21,43,4,3,23,14,FALSE,1138.24,750,left,green
104,114,test,crit,2,22,24,2,4,14,14,TRUE,1138.24,1298,left,green
104,115,test,crit,2,23,42,4,2,22,19,FALSE,1138.24,1109,left,green
104,116,test,crit,2,24,31,3,1,16,19,FALSE,1138.24,762,left,green
104,117,test,crit,2,25,11,1,1,6,14,FALSE,1138.24,1065,left,green
104,118,test,crit,2,26,22,2,2,12,16,FALSE,1138.24,895,left,green
104,119,test,crit,2,27,12,1,2,7,13,FALSE,1138.24,653,left,green
104,120,test,crit,2,28,14,1,4,9,11,FALSE,1138.24,751,left,green
104,121,test,crit,2,29,44,4,4,24,17,FALSE,1138.24,948,left,green
104,122,test,crit,2,30,21,2,1,11,16,FALSE,1138.24,836,left,green
104,123,test,crit,2,31,33,3,3,18,13,FALSE,1138.24,1204,left,green
104,124,test,crit,2,32,34,3,4,19,16,FALSE,1138.24,1248,left,green
104,125,test,crit,3,33,21,2,1,11,16,FALSE,1138.24,786,left,green
104,126,test,crit,3,34,42,4,2,22,19,FALSE,1138.24,740,left,green
104,127,test,crit,3,35,14,1,4,9,11,FALSE,1138.24,779,left,green
104,128,test,crit,3,36,31,3,1,16,19,FALSE,1138.24,874,left,green
104,129,test,crit,3,37,43,4,3,23,15,FALSE,1138.24,646,left,green
104,130,test,crit,3,38,11,1,1,6,15,FALSE,1138.24,768,left,green
104,131,test,crit,3,39,24,2,4,14,16,FALSE,1138.24,746,left,green
104,132,test,crit,3,40,41,4,1,21,21,TRUE,1138.24,1017,left,green
104,133,test,crit,3,41,34,3,4,19,16,FALSE,1138.24,1233,left,green
104,134,test,crit,3,42,23,2,3,13,14,FALSE,1138.24,746,left,green
104,135,test,crit,3,43,33,3,3,18,17,FALSE,1138.24,875,left,green
104,136,test,crit,3,44,44,4,4,24,18,FALSE,1138.24,822,left,green
104,137,test,crit,3,45,13,1,3,8,8,TRUE,1138.24,982,left,green
104,138,test,crit,3,46,12,1,2,7,13,FALSE,1138.24,1020,left,green
104,139,test,crit,3,47,22,2,2,12,16,FALSE,1138.24,619,left,green
104,140,test,crit,3,48,32,3,2,17,17,TRUE,1138.24,901,left,green
104,141,test,crit,4,49,11,1,1,6,14,FALSE,1138.24,866,left,green
104,142,test,crit,4,50,44,4,4,24,14,FALSE,1138.24,828,left,green
104,143,test,crit,4,51,34,3,4,19,15,FALSE,1138.24,1152,left,green
104,144,test,crit,4,52,12,1,2,7,13,FALSE,1138.24,651,left,green
104,145,test,crit,4,53,14,1,4,9,11,FALSE,1138.24,859,left,green
104,146,test,crit,4,54,32,3,2,17,17,TRUE,1138.24,680,left,green
104,147,test,crit,4,55,42,4,2,22,19,FALSE,1138.24,1116,left,green
104,148,test,crit,4,56,43,4,3,23,15,FALSE,1138.24,738,left,green
104,149,test,crit,4,57,41,4,1,21,19,FALSE,1138.24,738,left,green
104,150,test,crit,4,58,31,3,1,16,19,FALSE,1138.24,961,left,green
104,151,test,crit,4,59,22,2,2,12,16,FALSE,1138.24,1460,left,green
104,152,test,crit,4,60,21,2,1,11,17,FALSE,1138.24,1799,left,green
104,153,test,crit,4,61,24,2,4,14,14,TRUE,1138.24,1037,left,green
104,154,test,crit,4,62,23,2,3,13,11,FALSE,1138.24,664,left,green
104,155,test,crit,4,63,13,1,3,8,19,FALSE,1138.24,939,left,green
104,156,test,crit,4,64,33,3,3,18,13,FALSE,1138.24,741,left,green
104,157,test,crit,5,65,44,4,4,24,17,FALSE,1138.24,786,left,green
104,158,test,crit,5,66,23,2,3,13,11,FALSE,1138.24,778,left,green
104,159,test,crit,5,67,11,1,1,6,14,FALSE,1138.24,706,left,green
104,160,test,crit,5,68,41,4,1,21,21,TRUE,1138.24,908,left,green
104,161,test,crit,5,69,31,3,1,16,19,FALSE,1138.24,1236,left,green
104,162,test,crit,5,70,42,4,2,22,19,FALSE,1138.24,1171,left,green
104,163,test,crit,5,71,33,3,3,18,15,FALSE,1138.24,1330,left,green
104,164,test,crit,5,72,24,2,4,14,19,FALSE,1138.24,769,left,green
104,165,test,crit,5,73,22,2,2,12,16,FALSE,1138.24,741,left,green
104,166,test,crit,5,74,32,3,2,17,17,TRUE,1138.24,551,left,green
104,167,test,crit,5,75,21,2,1,11,18,FALSE,1138.24,930,left,green
104,168,test,crit,5,76,13,1,3,8,8,TRUE,1138.24,1075,left,green
104,169,test,crit,5,77,12,1,2,7,13,FALSE,1138.24,1081,left,green
104,170,test,crit,5,78,43,4,3,23,15,FALSE,1138.24,973,left,green
104,171,test,crit,5,79,14,1,4,9,11,FALSE,1138.24,726,left,green
104,172,test,crit,5,80,34,3,4,19,16,FALSE,1138.24,578,left,green
104,173,test,crit,6,81,44,4,4,24,17,FALSE,1138.24,875,left,green
104,174,test,crit,6,82,12,1,2,7,15,FALSE,1138.24,891,left,green
104,175,test,crit,6,83,42,4,2,22,19,FALSE,1138.24,777,left,green
104,176,test,crit,6,84,14,1,4,9,11,FALSE,1138.24,1016,left,green
104,177,test,crit,6,85,21,2,1,11,18,FALSE,1138.24,957,left,green
104,178,test,crit,6,86,11,1,1,6,15,FALSE,1138.24,1015,left,green
104,179,test,crit,6,87,41,4,1,21,21,TRUE,1138.24,1002,left,green
104,180,test,crit,6,88,22,2,2,12,16,FALSE,1138.24,968,left,green
104,181,test,crit,6,89,33,3,3,18,11,FALSE,1138.24,983,left,green
104,182,test,crit,6,90,13,1,3,8,8,TRUE,1138.24,815,left,green
104,183,test,crit,6,91,34,3,4,19,15,FALSE,1138.24,816,left,green
104,184,test,crit,6,92,32,3,2,17,17,TRUE,1138.24,733,left,green
104,185,test,crit,6,93,24,2,4,14,14,TRUE,1138.24,627,left,green
104,186,test,crit,6,94,43,4,3,23,16,FALSE,1138.24,687,left,green
104,187,test,crit,6,95,23,2,3,13,14,FALSE,1138.24,838,left,green
104,188,test,crit,6,96,31,3,1,16,19,FALSE,1138.24,1062,left,green
104,189,test,crit,7,97,44,4,4,24,17,FALSE,1138.24,986,left,green
104,190,test,crit,7,98,34,3,4,19,16,FALSE,1138.24,915,left,green
104,191,test,crit,7,99,41,4,1,21,21,TRUE,1138.24,762,left,green
104,192,test,crit,7,100,22,2,2,12,16,FALSE,1138.24,626,left,green
104,193,test,crit,7,101,32,3,2,17,17,TRUE,1138.24,727,left,green
104,194,test,crit,7,102,14,1,4,9,11,FALSE,1138.24,834,left,green
104,195,test,crit,7,103,12,1,2,7,13,FALSE,1138.24,1018,left,green
104,196,test,crit,7,104,31,3,1,16,19,FALSE,1138.24,932,left,green
104,197,test,crit,7,105,24,2,4,14,14,TRUE,1138.24,1377,left,green
104,198,test,crit,7,106,43,4,3,23,15,FALSE,1138.24,719,left,green
104,199,test,crit,7,107,23,2,3,13,11,FALSE,1138.24,687,left,green
104,200,test,crit,7,108,13,1,3,8,8,TRUE,1138.24,621,left,green
104,201,test,crit,7,109,33,3,3,18,13,FALSE,1138.24,795,left,green
104,202,test,crit,7,110,11,1,1,6,15,FALSE,1138.24,967,left,green
104,203,test,crit,7,111,21,2,1,11,17,FALSE,1138.24,660,left,green
104,204,test,crit,7,112,42,4,2,22,19,FALSE,1138.24,1219,left,green
104,205,test,crit,8,113,14,1,4,9,11,FALSE,1138.24,1048,left,green
104,206,test,crit,8,114,13,1,3,8,8,TRUE,1138.24,867,left,green
104,207,test,crit,8,115,43,4,3,23,13,FALSE,1138.24,904,left,green
104,208,test,crit,8,116,11,1,1,6,15,FALSE,1138.24,819,left,green
104,209,test,crit,8,117,23,2,3,13,11,FALSE,1138.24,747,left,green
104,210,test,crit,8,118,42,4,2,22,19,FALSE,1138.24,1623,left,green
104,211,test,crit,8,119,22,2,2,12,16,FALSE,1138.24,676,left,green
104,212,test,crit,8,120,31,3,1,16,19,FALSE,1138.24,733,left,green
104,213,test,crit,8,121,33,3,3,18,13,FALSE,1138.24,736,left,green
104,214,test,crit,8,122,41,4,1,21,21,TRUE,1138.24,794,left,green
104,215,test,crit,8,123,24,2,4,14,18,FALSE,1138.24,1133,left,green
104,216,test,crit,8,124,44,4,4,24,17,FALSE,1138.24,698,left,green
104,217,test,crit,8,125,32,3,2,17,17,TRUE,1138.24,949,left,green
104,218,test,crit,8,126,12,1,2,7,15,FALSE,1138.24,865,left,green
104,219,test,crit,8,127,21,2,1,11,17,FALSE,1138.24,907,left,green
104,220,test,crit,8,128,34,3,4,19,16,FALSE,1138.24,605,left,green
104,221,test,loc,1,1,42,4,2,0,0,TRUE,,3426,left,green
104,222,test,loc,1,2,23,2,3,0,0,TRUE,,4466,left,green
104,223,test,loc,1,3,41,4,1,4,4,TRUE,,2548,left,green
104,224,test,loc,1,4,14,1,4,0,0,TRUE,,2717,left,green
104,225,test,loc,1,5,24,2,4,3,3,TRUE,,462,left,green
104,226,test,loc,1,6,31,3,1,0,0,TRUE,,2572,left,green
104,227,test,loc,1,7,32,3,2,2,2,TRUE,,3027,left,green
104,228,test,loc,1,8,13,1,3,1,1,TRUE,,3962,left,green
105,1,psych,loc,1,1,24,2,4,4,4,TRUE,2000,,left,purple
105,2,psych,loc,1,2,21,2,1,3,3,TRUE,1663.4,,left,purple
105,3,psych,loc,1,3,43,4,3,2,2,TRUE,1663.4,,left,purple
105,4,psych,loc,1,4,13,1,3,1,1,TRUE,1663.4,,left,purple
105,5,psych,loc,1,5,32,3,2,2,2,TRUE,1663.4,,left,purple
105,6,psych,loc,1,6,11,1,1,1,1,TRUE,1326.8,,left,purple
105,7,psych,loc,1,7,41,4,1,1,1,TRUE,1326.8,,left,purple
105,8,psych,loc,1,8,44,4,4,1,1,TRUE,1326.8,,left,purple
105,9,psych,loc,1,9,34,3,4,2,2,TRUE,1326.8,,left,purple
105,10,psych,loc,1,10,12,1,2,2,2,TRUE,990.2,,left,purple
105,11,psych,loc,1,11,23,2,3,4,4,TRUE,990.2,,left,purple
105,12,psych,loc,1,12,31,3,1,2,2,TRUE,990.2,,left,purple
105,13,psych,loc,1,13,33,3,3,2,2,TRUE,990.2,,left,purple
105,14,psych,loc,1,14,22,2,2,3,3,TRUE,653.6,,left,purple
105,15,psych,loc,1,15,14,1,4,1,3,FALSE,653.6,,left,purple
105,16,psych,loc,1,16,42,4,2,1,1,TRUE,1053.6,,left,purple
105,17,psych,loc,2,17,34,3,4,1,1,TRUE,1053.6,,left,purple
105,18,psych,loc,2,18,32,3,2,3,3,TRUE,1053.6,,left,purple
105,19,psych,loc,2,19,41,4,1,2,2,TRUE,717,,left,purple
105,20,psych,loc,2,20,22,2,2,4,4,TRUE,717,,left,purple
105,21,psych,loc,2,21,11,1,1,4,4,TRUE,717,,left,purple
105,22,psych,loc,2,22,44,4,4,3,3,TRUE,717,,left,purple
105,23,psych,loc,2,23,23,2,3,1,1,TRUE,380.4,,left,purple
105,24,psych,loc,2,24,43,4,3,3,3,TRUE,380.4,,left,purple
105,25,psych,loc,2,25,12,1,2,1,1,TRUE,380.4,,left,purple
105,26,psych,loc,2,26,31,3,1,2,2,TRUE,380.4,,left,purple
105,27,psych,loc,2,27,33,3,3,1,1,TRUE,43.8,,left,purple
105,28,psych,loc,2,28,24,2,4,3,1,FALSE,43.8,,left,purple
105,29,psych,loc,2,29,14,1,4,2,2,TRUE,443.8,,left,purple
105,30,psych,loc,2,30,42,4,2,2,2,TRUE,443.8,,left,purple
105,31,psych,loc,2,31,13,1,3,4,4,TRUE,443.8,,left,purple
105,32,psych,loc,2,32,21,2,1,2,2,TRUE,107.2,,left,purple
105,33,psych,loc,3,33,11,1,1,2,2,TRUE,107.2,,left,purple
105,34,psych,loc,3,34,33,3,3,2,2,TRUE,107.2,,left,purple
105,35,psych,loc,3,35,13,1,3,1,1,TRUE,107.2,,left,purple
105,36,psych,loc,3,36,43,4,3,3,1,FALSE,,,left,purple
105,37,psych,loc,3,37,23,2,3,1,1,TRUE,170.6,,left,purple
105,38,psych,loc,3,38,14,1,4,1,1,TRUE,170.6,,left,purple
105,39,psych,loc,3,39,42,4,2,2,2,TRUE,170.6,,left,purple
105,40,psych,loc,3,40,31,3,1,2,1,FALSE,170.6,,left,purple
105,41,psych,loc,3,41,24,2,4,4,4,TRUE,570.6,,left,purple
105,42,psych,loc,3,42,21,2,1,3,3,TRUE,234,,left,purple
105,43,psych,loc,3,43,22,2,2,4,4,TRUE,234,,left,purple
105,44,psych,loc,3,44,44,4,4,4,4,TRUE,234,,left,purple
105,45,psych,loc,3,45,12,1,2,1,1,TRUE,234,,left,purple
105,46,psych,loc,3,46,34,3,4,2,2,TRUE,,,left,purple
105,47,psych,loc,3,47,41,4,1,1,1,TRUE,,,left,purple
105,48,psych,loc,3,48,32,3,2,4,4,TRUE,,,left,purple
105,49,train,loc,1,1,32,3,2,3,3,TRUE,,7282,left,purple
105,50,train,loc,1,2,42,4,2,0,4,FALSE,,20009,left,purple
105,51,train,loc,1,3,13,1,3,2,2,TRUE,,4387,left,purple
105,52,train,loc,1,4,14,1,4,0,4,FALSE,,2718,left,purple
105,53,train,loc,1,5,24,2,4,4,4,TRUE,,2848,left,purple
105,54,train,loc,1,6,31,3,1,0,1,FALSE,,2227,left,purple
105,55,train,loc,1,7,23,2,3,0,2,FALSE,,3430,left,purple
105,56,train,loc,1,8,41,4,1,1,1,TRUE,,1882,left,purple
105,57,train,loc,2,9,42,4,2,0,0,TRUE,,4028,left,purple
105,58,train,loc,2,10,23,2,3,0,0,TRUE,,4658,left,purple
105,59,train,loc,2,11,13,1,3,2,2,TRUE,,2704,left,purple
105,60,train,loc,2,12,32,3,2,3,3,TRUE,,1914,left,purple
105,61,train,loc,2,13,14,1,4,0,0,TRUE,,4006,left,purple
105,62,train,loc,2,14,24,2,4,4,4,TRUE,,4630,left,purple
105,63,train,loc,2,15,41,4,1,1,1,TRUE,,1833,left,purple
105,64,train,loc,2,16,31,3,1,0,0,TRUE,,1174,left,purple
105,65,train,loc,3,17,24,2,4,4,4,TRUE,,6629,left,purple
105,66,train,loc,3,18,32,3,2,3,3,TRUE,,3232,left,purple
105,67,train,loc,3,19,41,4,1,1,1,TRUE,,2422,left,purple
105,68,train,loc,3,20,13,1,3,2,2,TRUE,,2383,left,purple
105,69,train,loc,3,21,42,4,2,0,0,TRUE,,2244,left,purple
105,70,train,loc,3,22,14,1,4,0,0,TRUE,,2967,left,purple
105,71,train,loc,3,23,31,3,1,0,0,TRUE,,1429,left,purple
105,72,train,loc,3,24,23,2,3,0,0,TRUE,,3782,left,purple
105,73,train,loc,4,25,32,3,2,3,3,TRUE,,2450,left,purple
105,74,train,loc,4,26,42,4,2,0,0,TRUE,,2077,left,purple
105,75,train,loc,4,27,24,2,4,4,4,TRUE,,2156,left,purple
105,76,train,loc,4,28,13,1,3,2,2,TRUE,,2835,left,purple
105,77,train,loc,4,29,23,2,3,0,0,TRUE,,1890,left,purple
105,78,train,loc,4,30,31,3,1,0,0,TRUE,,2181,left,purple
105,79,train,loc,4,31,14,1,4,0,0,TRUE,,1735,left,purple
105,80,train,loc,4,32,41,4,1,1,1,TRUE,,1652,left,purple
105,81,train,crit,1,1,41,4,1,21,5,FALSE,,1847,left,purple
105,82,train,crit,1,2,32,3,2,17,17,TRUE,,1665,left,purple
105,83,train,crit,1,3,24,2,4,14,14,TRUE,,1294,left,purple
105,84,train,crit,1,4,13,1,3,8,8,TRUE,,1358,left,purple
105,85,train,crit,2,5,13,1,3,8,8,TRUE,,963,left,purple
105,86,train,crit,2,6,41,4,1,21,21,TRUE,,1437,left,purple
105,87,train,crit,2,7,32,3,2,17,17,TRUE,,1599,left,purple
105,88,train,crit,2,8,24,2,4,14,14,TRUE,,1489,left,purple
105,89,train,crit,3,9,41,4,1,21,21,TRUE,,1143,left,purple
105,90,train,crit,3,10,24,2,4,14,14,TRUE,,1205,left,purple
105,91,train,crit,3,11,32,3,2,17,17,TRUE,,1044,left,purple
105,92,train,crit,3,12,13,1,3,8,-1,FALSE,,-1,left,purple
105,93,train,crit,4,13,41,4,1,21,21,TRUE,,1020,left,purple
105,94,train,crit,4,14,24,2,4,14,14,TRUE,,1344,left,purple
105,95,train,crit,4,15,32,3,2,17,17,TRUE,,1036,left,purple
105,96,train,crit,4,16,13,1,3,8,8,TRUE,,1254,left,purple
105,97,train,crit,5,17,13,1,3,8,8,TRUE,,1157,left,purple
105,98,train,crit,5,18,24,2,4,14,14,TRUE,,933,left,purple
105,99,train,crit,5,19,32,3,2,17,17,TRUE,,1029,left,purple
105,100,train,crit,5,20,41,4,1,21,21,TRUE,,940,left,purple
105,101,test,crit,1,1,12,1,2,7,7,TRUE,470.85,1131,left,purple
105,102,test,crit,1,2,22,2,2,12,12,TRUE,470.85,1107,left,purple
105,103,test,crit,1,3,43,4,3,23,23,TRUE,470.85,1466,left,purple
105,104,test,crit,1,4,13,1,3,8,8,TRUE,470.85,1504,left,purple
105,105,test,crit,1,5,31,3,1,16,16,TRUE,470.85,1445,left,purple
105,106,test,crit,1,6,11,1,1,6,6,TRUE,470.85,1311,left,purple
105,107,test,crit,1,7,44,4,4,24,24,TRUE,470.85,1205,left,purple
105,108,test,crit,1,8,24,2,4,14,14,TRUE,470.85,947,left,purple
105,109,test,crit,1,9,32,3,2,17,17,TRUE,470.85,842,left,purple
105,110,test,crit,1,10,21,2,1,11,11,TRUE,470.85,1846,left,purple
105,111,test,crit,1,11,14,1,4,9,9,TRUE,470.85,1729,left,purple
105,112,test,crit,1,12,33,3,3,18,18,TRUE,470.85,926,left,purple
105,113,test,crit,1,13,42,4,2,22,22,TRUE,470.85,1042,left,purple
105,114,test,crit,1,14,23,2,3,13,13,TRUE,470.85,1143,left,purple
105,115,test,crit,1,15,41,4,1,21,21,TRUE,470.85,801,left,purple
105,116,test,crit,1,16,34,3,4,19,19,TRUE,470.85,1063,left,purple
105,117,test,crit,2,17,43,4,3,23,23,TRUE,470.85,1059,left,purple
105,118,test,crit,2,18,21,2,1,11,11,TRUE,470.85,1550,left,purple
105,119,test,crit,2,19,42,4,2,22,22,TRUE,470.85,1087,left,purple
105,120,test,crit,2,20,12,1,2,7,-1,FALSE,470.85,-1,left,purple
105,121,test,crit,2,21,22,2,2,12,12,TRUE,470.85,956,left,purple
105,122,test,crit,2,22,41,4,1,21,21,TRUE,470.85,1049,left,purple
105,123,test,crit,2,23,23,2,3,13,13,TRUE,470.85,1652,left,purple
105,124,test,crit,2,24,32,3,2,17,17,TRUE,470.85,1012,left,purple
105,125,test,crit,2,25,14,1,4,9,9,TRUE,470.85,1400,left,purple
105,126,test,crit,2,26,24,2,4,14,14,TRUE,470.85,767,left,purple
105,127,test,crit,2,27,13,1,3,8,8,TRUE,470.85,1458,left,purple
105,128,test,crit,2,28,33,3,3,18,18,TRUE,470.85,1218,left,purple
105,129,test,crit,2,29,34,3,4,19,19,TRUE,470.85,903,left,purple
105,130,test,crit,2,30,31,3,1,16,16,TRUE,470.85,840,left,purple
105,131,test,crit,2,31,44,4,4,24,24,TRUE,470.85,1261,left,purple
105,132,test,crit,2,32,11,1,1,6,6,TRUE,470.85,1310,left,purple
105,133,test,crit,3,33,31,3,1,16,16,TRUE,470.85,1189,left,purple
105,134,test,crit,3,34,14,1,4,9,9,TRUE,470.85,978,left,purple
105,135,test,crit,3,35,12,1,2,7,7,TRUE,470.85,860,left,purple
105,136,test,crit,3,36,34,3,4,19,19,TRUE,470.85,1361,left,purple
105,137,test,crit,3,37,33,3,3,18,19,FALSE,470.85,1498,left,purple
105,138,test,crit,3,38,42,4,2,22,22,TRUE,470.85,903,left,purple
105,139,test,crit,3,39,13,1,3,8,8,TRUE,470.85,1424,left,purple
105,140,test,crit,3,40,24,2,4,14,9,FALSE,470.85,1908,left,purple
105,141,test,crit,3,41,43,4,3,23,23,TRUE,470.85,1020,left,purple
105,142,test,crit,3,42,22,2,2,12,12,TRUE,470.85,1110,left,purple
105,143,test,crit,3,43,44,4,4,24,24,TRUE,470.85,1220,left,purple
105,144,test,crit,3,44,32,3,2,17,17,TRUE,470.85,1786,left,purple
105,145,test,crit,3,45,21,2,1,11,7,FALSE,470.85,1284,left,purple
105,146,test,crit,3,46,23,2,3,13,13,TRUE,470.85,1088,left,purple
105,147,test,crit,3,47,11,1,1,6,6,TRUE,470.85,999,left,purple
105,148,test,crit,3,48,41,4,1,21,21,TRUE,470.85,920,left,purple
105,149,test,crit,4,49,21,2,1,11,11,TRUE,470.85,1863,left,purple
105,150,test,crit,4,50,42,4,2,22,22,TRUE,470.85,961,left,purple
105,151,test,crit,4,51,23,2,3,13,13,TRUE,470.85,1138,left,purple
105,152,test,crit,4,52,34,3,4,19,19,TRUE,470.85,932,left,purple
105,153,test,crit,4,53,12,1,2,7,7,TRUE,470.85,832,left,purple
105,154,test,crit,4,54,33,3,3,18,18,TRUE,470.85,1079,left,purple
105,155,test,crit,4,55,22,2,2,12,12,TRUE,470.85,1326,left,purple
105,156,test,crit,4,56,14,1,4,9,9,TRUE,470.85,1342,left,purple
105,157,test,crit,4,57,44,4,4,24,24,TRUE,470.85,921,left,purple
105,158,test,crit,4,58,13,1,3,8,8,TRUE,470.85,1113,left,purple
105,159,test,crit,4,59,24,2,4,14,14,TRUE,470.85,1073,left,purple
105,160,test,crit,4,60,11,1,1,6,6,TRUE,470.85,1178,left,purple
105,161,test,crit,4,61,31,3,1,16,16,TRUE,470.85,1079,left,purple
105,162,test,crit,4,62,41,4,1,21,21,TRUE,470.85,874,left,purple
105,163,test,crit,4,63,32,3,2,17,17,TRUE,470.85,882,left,purple
105,164,test,crit,4,64,43,4,3,23,23,TRUE,470.85,1083,left,purple
105,165,test,crit,5,65,44,4,4,24,24,TRUE,470.85,997,left,purple
105,166,test,crit,5,66,11,1,1,6,6,TRUE,470.85,1280,left,purple
105,167,test,crit,5,67,22,2,2,12,12,TRUE,470.85,1150,left,purple
105,168,test,crit,5,68,14,1,4,9,9,TRUE,470.85,940,left,purple
105,169,test,crit,5,69,13,1,3,8,8,TRUE,470.85,1208,left,purple
105,170,test,crit,5,70,34,3,4,19,19,TRUE,470.85,897,left,purple
105,171,test,crit,5,71,24,2,4,14,14,TRUE,470.85,1070,left,purple
105,172,test,crit,5,72,33,3,3,18,18,TRUE,470.85,1009,left,purple
105,173,test,crit,5,73,31,3,1,16,16,TRUE,470.85,1827,left,purple
105,174,test,crit,5,74,23,2,3,13,13,TRUE,470.85,1064,left,purple
105,175,test,crit,5,75,32,3,2,17,17,TRUE,470.85,1007,left,purple
105,176,test,crit,5,76,42,4,2,22,21,FALSE,470.85,1115,left,purple
105,177,test,crit,5,77,21,2,1,11,11,TRUE,470.85,1186,left,purple
105,178,test,crit,5,78,41,4,1,21,21,TRUE,470.85,1063,left,purple
105,179,test,crit,5,79,12,1,2,7,7,TRUE,470.85,1100,left,purple
105,180,test,crit,5,80,43,4,3,23,23,TRUE,470.85,740,left,purple
105,181,test,crit,6,81,32,3,2,17,17,TRUE,470.85,990,left,purple
105,182,test,crit,6,82,21,2,1,11,11,TRUE,470.85,1146,left,purple
105,183,test,crit,6,83,42,4,2,22,22,TRUE,470.85,991,left,purple
105,184,test,crit,6,84,24,2,4,14,14,TRUE,470.85,948,left,purple
105,185,test,crit,6,85,34,3,4,19,19,TRUE,470.85,1034,left,purple
105,186,test,crit,6,86,14,1,4,9,9,TRUE,470.85,1529,left,purple
105,187,test,crit,6,87,31,3,1,16,16,TRUE,470.85,1017,left,purple
105,188,test,crit,6,88,12,1,2,7,7,TRUE,470.85,1085,left,purple
105,189,test,crit,6,89,41,4,1,21,21,TRUE,470.85,1728,left,purple
105,190,test,crit,6,90,43,4,3,23,23,TRUE,470.85,937,left,purple
105,191,test,crit,6,91,13,1,3,8,8,TRUE,470.85,1973,left,purple
105,192,test,crit,6,92,23,2,3,13,13,TRUE,470.85,945,left,purple
105,193,test,crit,6,93,22,2,2,12,12,TRUE,470.85,1193,left,purple
105,194,test,crit,6,94,33,3,3,18,18,TRUE,470.85,1321,left,purple
105,195,test,crit,6,95,44,4,4,24,24,TRUE,470.85,1039,left,purple
105,196,test,crit,6,96,11,1,1,6,6,TRUE,470.85,994,left,purple
105,197,test,crit,7,97,11,1,1,6,6,TRUE,470.85,1052,left,purple
105,198,test,crit,7,98,33,3,3,18,18,TRUE,470.85,1397,left,purple
105,199,test,crit,7,99,12,1,2,7,7,TRUE,470.85,790,left,purple
105,200,test,crit,7,100,34,3,4,19,-1,FALSE,470.85,-1,left,purple
105,201,test,crit,7,101,42,4,2,22,22,TRUE,470.85,1036,left,purple
105,202,test,crit,7,102,43,4,3,23,23,TRUE,470.85,1596,left,purple
105,203,test,crit,7,103,31,3,1,16,16,TRUE,470.85,1187,left,purple
105,204,test,crit,7,104,32,3,2,17,-1,FALSE,470.85,-1,left,purple
105,205,test,crit,7,105,13,1,3,8,8,TRUE,470.85,1345,left,purple
105,206,test,crit,7,106,22,2,2,12,12,TRUE,470.85,888,left,purple
105,207,test,crit,7,107,21,2,1,11,11,TRUE,470.85,776,left,purple
105,208,test,crit,7,108,41,4,1,21,21,TRUE,470.85,1174,left,purple
105,209,test,crit,7,109,23,2,3,13,14,FALSE,470.85,926,left,purple
105,210,test,crit,7,110,44,4,4,24,24,TRUE,470.85,948,left,purple
105,211,test,crit,7,111,24,2,4,14,14,TRUE,470.85,902,left,purple
105,212,test,crit,7,112,14,1,4,9,9,TRUE,470.85,923,left,purple
105,213,test,crit,8,113,43,4,3,23,23,TRUE,470.85,811,left,purple
105,214,test,crit,8,114,34,3,4,19,19,TRUE,470.85,1449,left,purple
105,215,test,crit,8,115,32,3,2,17,17,TRUE,470.85,865,left,purple
105,216,test,crit,8,116,11,1,1,6,6,TRUE,470.85,1056,left,purple
105,217,test,crit,8,117,44,4,4,24,24,TRUE,470.85,1063,left,purple
105,218,test,crit,8,118,41,4,1,21,21,TRUE,470.85,946,left,purple
105,219,test,crit,8,119,23,2,3,13,13,TRUE,470.85,1186,left,purple
105,220,test,crit,8,120,22,2,2,12,12,TRUE,470.85,1425,left,purple
105,221,test,crit,8,121,31,3,1,16,16,TRUE,470.85,1429,left,purple
105,222,test,crit,8,122,21,2,1,11,11,TRUE,470.85,1499,left,purple
105,223,test,crit,8,123,24,2,4,14,14,TRUE,470.85,861,left,purple
105,224,test,crit,8,124,33,3,3,18,19,FALSE,470.85,994,left,purple
105,225,test,crit,8,125,14,1,4,9,9,TRUE,470.85,961,left,purple
105,226,test,crit,8,126,42,4,2,22,22,TRUE,470.85,898,left,purple
105,227,test,crit,8,127,13,1,3,8,8,TRUE,470.85,1391,left,purple
105,228,test,crit,8,128,12,1,2,7,7,TRUE,470.85,974,left,purple
105,229,test,loc,1,1,13,1,3,2,2,TRUE,,5505,left,purple
105,230,test,loc,1,2,14,1,4,0,4,FALSE,,7251,left,purple
105,231,test,loc,1,3,31,3,1,0,0,TRUE,,3146,left,purple
105,232,test,loc,1,4,24,2,4,4,0,FALSE,,3090,left,purple
105,233,test,loc,1,5,42,4,2,0,0,TRUE,,1707,left,purple
105,234,test,loc,1,6,41,4,1,1,1,TRUE,,1235,left,purple
105,235,test,loc,1,7,23,2,3,0,2,FALSE,,2973,left,purple
105,236,test,loc,1,8,32,3,2,3,3,TRUE,,2050,left,purple
106,1,psych,loc,1,1,34,3,4,2,2,TRUE,2000,,right,green
106,2,psych,loc,1,2,24,2,4,3,3,TRUE,1663.4,,right,green
106,3,psych,loc,1,3,32,3,2,4,4,TRUE,1663.4,,right,green
106,4,psych,loc,1,4,14,1,4,2,2,TRUE,1663.4,,right,green
106,5,psych,loc,1,5,41,4,1,1,1,TRUE,1663.4,,right,green
106,6,psych,loc,1,6,21,2,1,3,3,TRUE,1326.8,,right,green
106,7,psych,loc,1,7,44,4,4,2,2,TRUE,1326.8,,right,green
106,8,psych,loc,1,8,31,3,1,3,3,TRUE,1326.8,,right,green
106,9,psych,loc,1,9,33,3,3,2,2,TRUE,1326.8,,right,green
106,10,psych,loc,1,10,11,1,1,2,2,TRUE,990.2,,right,green
106,11,psych,loc,1,11,22,2,2,4,4,TRUE,990.2,,right,green
106,12,psych,loc,1,12,23,2,3,1,1,TRUE,990.2,,right,green
106,13,psych,loc,1,13,13,1,3,4,4,TRUE,990.2,,right,green
106,14,psych,loc,1,14,42,4,2,2,2,TRUE,653.6,,right,green
106,15,psych,loc,1,15,43,4,3,3,3,TRUE,653.6,,right,green
106,16,psych,loc,1,16,12,1,2,3,3,TRUE,653.6,,right,green
106,17,psych,loc,2,17,24,2,4,2,2,TRUE,653.6,,right,green
106,18,psych,loc,2,18,44,4,4,1,1,TRUE,317,,right,green
106,19,psych,loc,2,19,42,4,2,2,2,TRUE,317,,right,green
106,20,psych,loc,2,20,21,2,1,4,4,TRUE,317,,right,green
106,21,psych,loc,2,21,34,3,4,4,4,TRUE,317,,right,green
106,22,psych,loc,2,22,22,2,2,3,1,FALSE,,,right,green
106,23,psych,loc,2,23,13,1,3,3,3,TRUE,380.4,,right,green
106,24,psych,loc,2,24,11,1,1,2,2,TRUE,380.4,,right,green
106,25,psych,loc,2,25,23,2,3,1,1,TRUE,380.4,,right,green
106,26,psych,loc,2,26,12,1,2,1,1,TRUE,380.4,,right,green
106,27,psych,loc,2,27,32,3,2,4,4,TRUE,43.8,,right,green
106,28,psych,loc,2,28,33,3,3,1,1,TRUE,43.8,,right,green
106,29,psych,loc,2,29,31,3,1,2,2,TRUE,43.8,,right,green
106,30,psych,loc,2,30,41,4,1,2,2,TRUE,43.8,,right,green
106,31,psych,loc,2,31,14,1,4,1,1,TRUE,,,right,green
106,32,psych,loc,2,32,43,4,3,2,2,TRUE,,,right,green
106,33,psych,loc,3,33,13,1,3,3,3,TRUE,,,right,green
106,34,psych,loc,3,34,42,4,2,1,1,TRUE,,,right,green
106,35,psych,loc,3,35,24,2,4,2,2,TRUE,,,right,green
106,36,psych,loc,3,36,12,1,2,3,3,TRUE,,,right,green
106,37,psych,loc,3,37,33,3,3,4,1,FALSE,,,right,green
106,38,psych,loc,3,38,23,2,3,4,2,FALSE,,,right,green
106,39,psych,loc,3,39,14,1,4,3,3,TRUE,170.6,,right,green
106,40,psych,loc,3,40,11,1,1,3,3,TRUE,170.6,,right,green
106,41,psych,loc,3,41,34,3,4,2,2,TRUE,,,right,green
106,42,psych,loc,3,42,32,3,2,3,2,FALSE,,,right,green
106,43,psych,loc,3,43,22,2,2,2,2,TRUE,234,,right,green
106,44,psych,loc,3,44,43,4,3,1,1,TRUE,234,,right,green
106,45,psych,loc,3,45,41,4,1,1,1,TRUE,234,,right,green
106,46,psych,loc,3,46,31,3,1,1,1,TRUE,,,right,green
106,47,psych,loc,3,47,21,2,1,1,1,TRUE,,,right,green
106,48,psych,loc,3,48,44,4,4,3,3,TRUE,,,right,green
106,49,train,loc,1,1,23,2,3,0,3,FALSE,,6436,right,green
106,50,train,loc,1,2,42,4,2,0,0,TRUE,,14236,right,green
106,51,train,loc,1,3,24,2,4,3,0,FALSE,,6191,right,green
106,52,train,loc,1,4,32,3,2,2,2,TRUE,,6356,right,green
106,53,train,loc,1,5,31,3,1,0,0,TRUE,,2979,right,green
106,54,train,loc,1,6,13,1,3,1,1,TRUE,,4025,right,green
106,55,train,loc,1,7,41,4,1,4,4,TRUE,,3066,right,green
106,56,train,loc,1,8,14,1,4,0,0,TRUE,,2381,right,green
106,57,train,loc,2,9,13,1,3,1,1,TRUE,,4731,right,green
106,58,train,loc,2,10,32,3,2,2,2,TRUE,,3407,right,green
106,59,train,loc,2,11,41,4,1,4,4,TRUE,,2616,right,green
106,60,train,loc,2,12,14,1,4,0,0,TRUE,,1741,right,green
106,61,train,loc,2,13,42,4,2,0,0,TRUE,,2466,right,green
106,62,train,loc,2,14,31,3,1,0,0,TRUE,,2944,right,green
106,63,train,loc,2,15,24,2,4,3,3,TRUE,,4307,right,green
106,64,train,loc,2,16,23,2,3,0,0,TRUE,,1822,right,green
106,65,train,loc,3,17,41,4,1,4,4,TRUE,,2254,right,green
106,66,train,loc,3,18,42,4,2,0,0,TRUE,,3431,right,green
106,67,train,loc,3,19,14,1,4,0,0,TRUE,,3891,right,green
106,68,train,loc,3,20,31,3,1,0,0,TRUE,,3458,right,green
106,69,train,loc,3,21,23,2,3,0,0,TRUE,,3958,right,green
106,70,train,loc,3,22,13,1,3,1,1,TRUE,,2901,right,green
106,71,train,loc,3,23,24,2,4,3,3,TRUE,,2169,right,green
106,72,train,loc,3,24,32,3,2,2,2,TRUE,,2351,right,green
106,73,train,loc,4,25,41,4,1,4,4,TRUE,,3007,right,green
106,74,train,loc,4,26,24,2,4,3,3,TRUE,,2303,right,green
106,75,train,loc,4,27,13,1,3,1,1,TRUE,,1625,right,green
106,76,train,loc,4,28,31,3,1,0,0,TRUE,,2644,right,green
106,77,train,loc,4,29,23,2,3,0,0,TRUE,,5621,right,green
106,78,train,loc,4,30,32,3,2,2,2,TRUE,,2227,right,green
106,79,train,loc,4,31,14,1,4,0,0,TRUE,,2555,right,green
106,80,train,loc,4,32,42,4,2,0,0,TRUE,,2500,right,green
106,81,train,crit,1,1,13,1,3,8,15,FALSE,,1148,right,green
106,82,train,crit,1,2,41,4,1,21,10,FALSE,,1375,right,green
106,83,train,crit,1,3,32,3,2,17,17,TRUE,,878,right,green
106,84,train,crit,1,4,24,2,4,14,14,TRUE,,856,right,green
106,85,train,crit,2,5,24,2,4,14,14,TRUE,,744,right,green
106,86,train,crit,2,6,32,3,2,17,17,TRUE,,1316,right,green
106,87,train,crit,2,7,41,4,1,21,22,FALSE,,999,right,green
106,88,train,crit,2,8,13,1,3,8,8,TRUE,,1408,right,green
106,89,train,crit,3,9,24,2,4,14,14,TRUE,,1107,right,green
106,90,train,crit,3,10,41,4,1,21,21,TRUE,,1085,right,green
106,91,train,crit,3,11,32,3,2,17,17,TRUE,,891,right,green
106,92,train,crit,3,12,13,1,3,8,8,TRUE,,1083,right,green
106,93,train,crit,4,13,32,3,2,17,17,TRUE,,922,right,green
106,94,train,crit,4,14,13,1,3,8,8,TRUE,,883,right,green
106,95,train,crit,4,15,24,2,4,14,14,TRUE,,848,right,green
106,96,train,crit,4,16,41,4,1,21,21,TRUE,,1107,right,green
106,97,train,crit,5,17,13,1,3,8,8,TRUE,,1352,right,green
106,98,train,crit,5,18,24,2,4,14,14,TRUE,,1121,right,green
106,99,train,crit,5,19,32,3,2,17,17,TRUE,,936,right,green
106,100,train,crit,5,20,41,4,1,21,21,TRUE,,958,right,green
106,101,test,crit,1,1,31,3,1,16,16,TRUE,285.88,719,right,green
106,102,test,crit,1,2,32,3,2,17,17,TRUE,285.88,662,right,green
106,103,test,crit,1,3,43,4,3,23,23,TRUE,285.88,1139,right,green
106,104,test,crit,1,4,12,1,2,7,8,FALSE,285.88,1232,right,green
106,105,test,crit,1,5,24,2,4,14,14,TRUE,285.88,1241,right,green
106,106,test,crit,1,6,42,4,2,22,22,TRUE,285.88,1000,right,green
106,107,test,crit,1,7,34,3,4,19,18,FALSE,285.88,1162,right,green
106,108,test,crit,1,8,22,2,2,12,12,TRUE,285.88,1051,right,green
106,109,test,crit,1,9,23,2,3,13,13,TRUE,285.88,722,right,green
106,110,test,crit,1,10,11,1,1,6,6,TRUE,285.88,922,right,green
106,111,test,crit,1,11,33,3,3,18,18,TRUE,285.88,842,right,green
106,112,test,crit,1,12,44,4,4,24,24,TRUE,285.88,1482,right,green
106,113,test,crit,1,13,13,1,3,8,8,TRUE,285.88,812,right,green
106,114,test,crit,1,14,21,2,1,11,11,TRUE,285.88,1035,right,green
106,115,test,crit,1,15,14,1,4,9,9,TRUE,285.88,715,right,green
106,116,test,crit,1,16,41,4,1,21,21,TRUE,285.88,830,right,green
106,117,test,crit,2,17,32,3,2,17,17,TRUE,285.88,1151,right,green
106,118,test,crit,2,18,14,1,4,9,9,TRUE,285.88,875,right,green
106,119,test,crit,2,19,33,3,3,18,18,TRUE,285.88,1014,right,green
106,120,test,crit,2,20,11,1,1,6,6,TRUE,285.88,925,right,green
106,121,test,crit,2,21,31,3,1,16,16,TRUE,285.88,1017,right,green
106,122,test,crit,2,22,13,1,3,8,8,TRUE,285.88,1299,right,green
106,123,test,crit,2,23,12,1,2,7,7,TRUE,285.88,845,right,green
106,124,test,crit,2,24,24,2,4,14,14,TRUE,285.88,779,right,green
106,125,test,crit,2,25,43,4,3,23,23,TRUE,285.88,917,right,green
106,126,test,crit,2,26,34,3,4,19,19,TRUE,285.88,1328,right,green
106,127,test,crit,2,27,41,4,1,21,21,TRUE,285.88,648,right,green
106,128,test,crit,2,28,21,2,1,11,11,TRUE,285.88,757,right,green
106,129,test,crit,2,29,44,4,4,24,24,TRUE,285.88,850,right,green
106,130,test,crit,2,30,42,4,2,22,22,TRUE,285.88,620,right,green
106,131,test,crit,2,31,22,2,2,12,12,TRUE,285.88,938,right,green
106,132,test,crit,2,32,23,2,3,13,13,TRUE,285.88,937,right,green
106,133,test,crit,3,33,23,2,3,13,13,TRUE,285.88,1071,right,green
106,134,test,crit,3,34,32,3,2,17,17,TRUE,285.88,1134,right,green
106,135,test,crit,3,35,21,2,1,11,11,TRUE,285.88,948,right,green
106,136,test,crit,3,36,12,1,2,7,7,TRUE,285.88,1032,right,green
106,137,test,crit,3,37,11,1,1,6,6,TRUE,285.88,945,right,green
106,138,test,crit,3,38,42,4,2,22,22,TRUE,285.88,640,right,green
106,139,test,crit,3,39,44,4,4,24,24,TRUE,285.88,733,right,green
106,140,test,crit,3,40,43,4,3,23,23,TRUE,285.88,691,right,green
106,141,test,crit,3,41,14,1,4,9,9,TRUE,285.88,1023,right,green
106,142,test,crit,3,42,13,1,3,8,8,TRUE,285.88,820,right,green
106,143,test,crit,3,43,22,2,2,12,12,TRUE,285.88,848,right,green
106,144,test,crit,3,44,31,3,1,16,16,TRUE,285.88,1132,right,green
106,145,test,crit,3,45,33,3,3,18,18,TRUE,285.88,1315,right,green
106,146,test,crit,3,46,41,4,1,21,21,TRUE,285.88,722,right,green
106,147,test,crit,3,47,24,2,4,14,-1,FALSE,285.88,-1,right,green
106,148,test,crit,3,48,34,3,4,19,19,TRUE,285.88,780,right,green
106,149,test,crit,4,49,21,2,1,11,11,TRUE,285.88,611,right,green
106,150,test,crit,4,50,23,2,3,13,13,TRUE,285.88,808,right,green
106,151,test,crit,4,51,13,1,3,8,8,TRUE,285.88,492,right,green
106,152,test,crit,4,52,31,3,1,16,16,TRUE,285.88,729,right,green
106,153,test,crit,4,53,33,3,3,18,18,TRUE,285.88,787,right,green
106,154,test,crit,4,54,24,2,4,14,14,TRUE,285.88,678,right,green
106,155,test,crit,4,55,11,1,1,6,6,TRUE,285.88,674,right,green
106,156,test,crit,4,56,42,4,2,22,22,TRUE,285.88,593,right,green
106,157,test,crit,4,57,41,4,1,21,21,TRUE,285.88,677,right,green
106,158,test,crit,4,58,12,1,2,7,7,TRUE,285.88,701,right,green
106,159,test,crit,4,59,32,3,2,17,17,TRUE,285.88,636,right,green
106,160,test,crit,4,60,44,4,4,24,24,TRUE,285.88,585,right,green
106,161,test,crit,4,61,43,4,3,23,23,TRUE,285.88,586,right,green
106,162,test,crit,4,62,22,2,2,12,12,TRUE,285.88,1050,right,green
106,163,test,crit,4,63,14,1,4,9,9,TRUE,285.88,854,right,green
106,164,test,crit,4,64,34,3,4,19,19,TRUE,285.88,841,right,green
106,165,test,crit,5,65,11,1,1,6,6,TRUE,285.88,623,right,green
106,166,test,crit,5,66,44,4,4,24,24,TRUE,285.88,662,right,green
106,167,test,crit,5,67,24,2,4,14,14,TRUE,285.88,796,right,green
106,168,test,crit,5,68,34,3,4,19,19,TRUE,285.88,961,right,green
106,169,test,crit,5,69,43,4,3,23,23,TRUE,285.88,648,right,green
106,170,test,crit,5,70,32,3,2,17,17,TRUE,285.88,956,right,green
106,171,test,crit,5,71,13,1,3,8,8,TRUE,285.88,635,right,green
106,172,test,crit,5,72,31,3,1,16,16,TRUE,285.88,902,right,green
106,173,test,crit,5,73,33,3,3,18,18,TRUE,285.88,770,right,green
106,174,test,crit,5,74,14,1,4,9,9,TRUE,285.88,655,right,green
106,175,test,crit,5,75,42,4,2,22,22,TRUE,285.88,769,right,green
106,176,test,crit,5,76,12,1,2,7,7,TRUE,285.88,1276,right,green
106,177,test,crit,5,77,41,4,1,21,21,TRUE,285.88,847,right,green
106,178,test,crit,5,78,22,2,2,12,12,TRUE,285.88,1127,right,green
106,179,test,crit,5,79,21,2,1,11,11,TRUE,285.88,1022,right,green
106,180,test,crit,5,80,23,2,3,13,13,TRUE,285.88,818,right,green
106,181,test,crit,6,81,12,1,2,7,7,TRUE,285.88,562,right,green
106,182,test,crit,6,82,14,1,4,9,9,TRUE,285.88,548,right,green
106,183,test,crit,6,83,31,3,1,16,16,TRUE,285.88,692,right,green
106,184,test,crit,6,84,43,4,3,23,23,TRUE,285.88,730,right,green
106,185,test,crit,6,85,13,1,3,8,8,TRUE,285.88,580,right,green
106,186,test,crit,6,86,44,4,4,24,24,TRUE,285.88,909,right,green
106,187,test,crit,6,87,41,4,1,21,21,TRUE,285.88,574,right,green
106,188,test,crit,6,88,23,2,3,13,13,TRUE,285.88,1302,right,green
106,189,test,crit,6,89,22,2,2,12,12,TRUE,285.88,1043,right,green
106,190,test,crit,6,90,34,3,4,19,19,TRUE,285.88,1063,right,green
106,191,test,crit,6,91,42,4,2,22,22,TRUE,285.88,631,right,green
106,192,test,crit,6,92,32,3,2,17,17,TRUE,285.88,962,right,green
106,193,test,crit,6,93,33,3,3,18,18,TRUE,285.88,558,right,green
106,194,test,crit,6,94,11,1,1,6,6,TRUE,285.88,752,right,green
106,195,test,crit,6,95,21,2,1,11,11,TRUE,285.88,874,right,green
106,196,test,crit,6,96,24,2,4,14,14,TRUE,285.88,959,right,green
106,197,test,crit,7,97,44,4,4,24,24,TRUE,285.88,798,right,green
106,198,test,crit,7,98,14,1,4,9,9,TRUE,285.88,1760,right,green
106,199,test,crit,7,99,33,3,3,18,18,TRUE,285.88,515,right,green
106,200,test,crit,7,100,32,3,2,17,17,TRUE,285.88,866,right,green
106,201,test,crit,7,101,22,2,2,12,12,TRUE,285.88,728,right,green
106,202,test,crit,7,102,24,2,4,14,14,TRUE,285.88,781,right,green
106,203,test,crit,7,103,34,3,4,19,19,TRUE,285.88,780,right,green
106,204,test,crit,7,104,31,3,1,16,16,TRUE,285.88,844,right,green
106,205,test,crit,7,105,11,1,1,6,6,TRUE,285.88,648,right,green
106,206,test,crit,7,106,12,1,2,7,7,TRUE,285.88,920,right,green
106,207,test,crit,7,107,21,2,1,11,11,TRUE,285.88,519,right,green
106,208,test,crit,7,108,41,4,1,21,21,TRUE,285.88,507,right,green
106,209,test,crit,7,109,42,4,2,22,22,TRUE,285.88,611,right,green
106,210,test,crit,7,110,43,4,3,23,23,TRUE,285.88,1101,right,green
106,211,test,crit,7,111,13,1,3,8,8,TRUE,285.88,600,right,green
106,212,test,crit,7,112,23,2,3,13,13,TRUE,285.88,784,right,green
106,213,test,crit,8,113,43,4,3,23,23,TRUE,285.88,591,right,green
106,214,test,crit,8,114,24,2,4,14,14,TRUE,285.88,1304,right,green
106,215,test,crit,8,115,14,1,4,9,9,TRUE,285.88,850,right,green
106,216,test,crit,8,116,21,2,1,11,11,TRUE,285.88,1270,right,green
106,217,test,crit,8,117,34,3,4,19,19,TRUE,285.88,706,right,green
106,218,test,crit,8,118,23,2,3,13,13,TRUE,285.88,712,right,green
106,219,test,crit,8,119,42,4,2,22,22,TRUE,285.88,692,right,green
106,220,test,crit,8,120,31,3,1,16,16,TRUE,285.88,673,right,green
106,221,test,crit,8,121,44,4,4,24,24,TRUE,285.88,663,right,green
106,222,test,crit,8,122,41,4,1,21,21,TRUE,285.88,672,right,green
106,223,test,crit,8,123,33,3,3,18,18,TRUE,285.88,599,right,green
106,224,test,crit,8,124,22,2,2,12,12,TRUE,285.88,579,right,green
106,225,test,crit,8,125,12,1,2,7,7,TRUE,285.88,994,right,green
106,226,test,crit,8,126,11,1,1,6,6,TRUE,285.88,621,right,green
106,227,test,crit,8,127,32,3,2,17,17,TRUE,285.88,840,right,green
106,228,test,crit,8,128,13,1,3,8,8,TRUE,285.88,861,right,green
106,229,test,loc,1,1,42,4,2,0,0,TRUE,,3844,right,green
106,230,test,loc,1,2,41,4,1,4,4,TRUE,,2099,right,green
106,231,test,loc,1,3,31,3,1,0,0,TRUE,,3405,right,green
106,232,test,loc,1,4,14,1,4,0,0,TRUE,,2039,right,green
106,233,test,loc,1,5,13,1,3,1,1,TRUE,,2480,right,green
106,234,test,loc,1,6,32,3,2,2,2,TRUE,,2514,right,green
106,235,test,loc,1,7,23,2,3,0,0,TRUE,,2078,right,green
106,236,test,loc,1,8,24,2,4,3,3,TRUE,,1208,right,green
107,1,psych,loc,1,1,13,1,3,3,3,TRUE,2000,,left,green
107,2,psych,loc,1,2,12,1,2,3,3,TRUE,1663.4,,left,green
107,3,psych,loc,1,3,34,3,4,4,4,TRUE,1663.4,,left,green
107,4,psych,loc,1,4,24,2,4,1,1,TRUE,1663.4,,left,green
107,5,psych,loc,1,5,41,4,1,3,3,TRUE,1663.4,,left,green
107,6,psych,loc,1,6,11,1,1,3,3,TRUE,1326.8,,left,green
107,7,psych,loc,1,7,44,4,4,3,3,TRUE,1326.8,,left,green
107,8,psych,loc,1,8,22,2,2,4,4,TRUE,1326.8,,left,green
107,9,psych,loc,1,9,32,3,2,1,1,TRUE,1326.8,,left,green
107,10,psych,loc,1,10,33,3,3,3,3,TRUE,990.2,,left,green
107,11,psych,loc,1,11,21,2,1,4,4,TRUE,990.2,,left,green
107,12,psych,loc,1,12,14,1,4,3,3,TRUE,990.2,,left,green
107,13,psych,loc,1,13,42,4,2,1,1,TRUE,990.2,,left,green
107,14,psych,loc,1,14,23,2,3,2,2,TRUE,653.6,,left,green
107,15,psych,loc,1,15,31,3,1,2,2,TRUE,653.6,,left,green
107,16,psych,loc,1,16,43,4,3,1,1,TRUE,653.6,,left,green
107,17,psych,loc,2,17,32,3,2,1,1,TRUE,653.6,,left,green
107,18,psych,loc,2,18,22,2,2,1,1,TRUE,317,,left,green
107,19,psych,loc,2,19,12,1,2,1,1,TRUE,317,,left,green
107,20,psych,loc,2,20,24,2,4,3,3,TRUE,317,,left,green
107,21,psych,loc,2,21,14,1,4,1,1,TRUE,317,,left,green
107,22,psych,loc,2,22,11,1,1,1,1,TRUE,,,left,green
107,23,psych,loc,2,23,33,3,3,1,3,FALSE,,,left,green
107,24,psych,loc,2,24,23,2,3,2,2,TRUE,380.4,,left,green
107,25,psych,loc,2,25,42,4,2,4,4,TRUE,380.4,,left,green
107,26,psych,loc,2,26,41,4,1,3,3,TRUE,380.4,,left,green
107,27,psych,loc,2,27,31,3,1,2,2,TRUE,43.8,,left,green
107,28,psych,loc,2,28,44,4,4,3,3,TRUE,43.8,,left,green
107,29,psych,loc,2,29,21,2,1,3,3,TRUE,43.8,,left,green
107,30,psych,loc,2,30,34,3,4,3,3,TRUE,43.8,,left,green
107,31,psych,loc,2,31,13,1,3,4,4,TRUE,,,left,green
107,32,psych,loc,2,32,43,4,3,1,1,TRUE,,,left,green
107,33,psych,loc,3,33,44,4,4,1,1,TRUE,,,left,green
107,34,psych,loc,3,34,12,1,2,4,4,TRUE,,,left,green
107,35,psych,loc,3,35,22,2,2,4,4,TRUE,,,left,green
107,36,psych,loc,3,36,21,2,1,4,4,TRUE,,,left,green
107,37,psych,loc,3,37,23,2,3,4,4,TRUE,,,left,green
107,38,psych,loc,3,38,33,3,3,4,4,TRUE,,,left,green
107,39,psych,loc,3,39,34,3,4,2,4,FALSE,,,left,green
107,40,psych,loc,3,40,11,1,1,4,4,TRUE,,,left,green
107,41,psych,loc,3,41,42,4,2,1,1,TRUE,,,left,green
107,42,psych,loc,3,42,14,1,4,3,3,TRUE,,,left,green
107,43,psych,loc,3,43,13,1,3,4,4,TRUE,,,left,green
107,44,psych,loc,3,44,31,3,1,2,2,TRUE,,,left,green
107,45,psych,loc,3,45,41,4,1,3,3,TRUE,,,left,green
107,46,psych,loc,3,46,32,3,2,1,3,FALSE,,,left,green
107,47,psych,loc,3,47,24,2,4,3,3,TRUE,,,left,green
107,48,psych,loc,3,48,43,4,3,1,1,TRUE,,,left,green
107,49,train,loc,1,1,24,2,4,2,2,TRUE,,4475,left,green
107,50,train,loc,1,2,31,3,1,0,4,FALSE,,7232,left,green
107,51,train,loc,1,3,42,4,2,0,0,TRUE,,5615,left,green
107,52,train,loc,1,4,23,2,3,0,3,FALSE,,9682,left,green
107,53,train,loc,1,5,32,3,2,1,3,FALSE,,7518,left,green
107,54,train,loc,1,6,14,1,4,0,0,TRUE,,12318,left,green
107,55,train,loc,1,7,41,4,1,3,3,TRUE,,2669,left,green
107,56,train,loc,1,8,13,1,3,4,4,TRUE,,4451,left,green
107,57,train,loc,2,9,41,4,1,3,3,TRUE,,5455,left,green
107,58,train,loc,2,10,31,3,1,0,4,FALSE,,6765,left,green
107,59,train,loc,2,11,32,3,2,1,1,TRUE,,4653,left,green
107,60,train,loc,2,12,42,4,2,0,2,FALSE,,3747,left,green
107,61,train,loc,2,13,23,2,3,0,0,TRUE,,6300,left,green
107,62,train,loc,2,14,13,1,3,4,4,TRUE,,4542,left,green
107,63,train,loc,2,15,14,1,4,0,0,TRUE,,4212,left,green
107,64,train,loc,2,16,24,2,4,2,2,TRUE,,6149,left,green
107,65,train,loc,3,17,13,1,3,4,4,TRUE,,3117,left,green
107,66,train,loc,3,18,23,2,3,0,0,TRUE,,8869,left,green
107,67,train,loc,3,19,14,1,4,0,0,TRUE,,3821,left,green
107,68,train,loc,3,20,31,3,1,0,0,TRUE,,5744,left,green
107,69,train,loc,3,21,42,4,2,0,0,TRUE,,4370,left,green
107,70,train,loc,3,22,32,3,2,1,1,TRUE,,6807,left,green
107,71,train,loc,3,23,24,2,4,2,2,TRUE,,3762,left,green
107,72,train,loc,3,24,41,4,1,3,3,TRUE,,4568,left,green
107,73,train,loc,4,25,42,4,2,0,0,TRUE,,10445,left,green
107,74,train,loc,4,26,23,2,3,0,0,TRUE,,5711,left,green
107,75,train,loc,4,27,31,3,1,0,0,TRUE,,4764,left,green
107,76,train,loc,4,28,13,1,3,4,4,TRUE,,3183,left,green
107,77,train,loc,4,29,24,2,4,2,2,TRUE,,2262,left,green
107,78,train,loc,4,30,32,3,2,1,1,TRUE,,4320,left,green
107,79,train,loc,4,31,14,1,4,0,4,FALSE,,10356,left,green
107,80,train,loc,4,32,41,4,1,3,3,TRUE,,2667,left,green
107,81,train,loc,5,33,42,4,2,0,0,TRUE,,7020,left,green
107,82,train,loc,5,34,32,3,2,1,1,TRUE,,3856,left,green
107,83,train,loc,5,35,23,2,3,0,0,TRUE,,8597,left,green
107,84,train,loc,5,36,13,1,3,4,4,TRUE,,1441,left,green
107,85,train,loc,5,37,24,2,4,2,2,TRUE,,4893,left,green
107,86,train,loc,5,38,14,1,4,0,0,TRUE,,3896,left,green
107,87,train,loc,5,39,41,4,1,3,3,TRUE,,1736,left,green
107,88,train,loc,5,40,31,3,1,0,0,TRUE,,5713,left,green
107,89,train,loc,6,41,31,3,1,0,0,TRUE,,3957,left,green
107,90,train,loc,6,42,42,4,2,0,0,TRUE,,7516,left,green
107,91,train,loc,6,43,41,4,1,3,3,TRUE,,1844,left,green
107,92,train,loc,6,44,32,3,2,1,1,TRUE,,5228,left,green
107,93,train,loc,6,45,24,2,4,2,2,TRUE,,1927,left,green
107,94,train,loc,6,46,23,2,3,0,0,TRUE,,2397,left,green
107,95,train,loc,6,47,13,1,3,4,4,TRUE,,1462,left,green
107,96,train,loc,6,48,14,1,4,0,0,TRUE,,1998,left,green
107,97,train,crit,1,1,24,2,4,14,-1,FALSE,,-1,left,green
107,98,train,crit,1,2,41,4,1,21,5,FALSE,,1079,left,green
107,99,train,crit,1,3,13,1,3,8,6,FALSE,,1387,left,green
107,100,train,crit,1,4,32,3,2,17,12,FALSE,,1107,left,green
107,101,train,crit,2,5,41,4,1,21,21,TRUE,,1460,left,green
107,102,train,crit,2,6,32,3,2,17,17,TRUE,,1002,left,green
107,103,train,crit,2,7,24,2,4,14,15,FALSE,,1028,left,green
107,104,train,crit,2,8,13,1,3,8,8,TRUE,,1112,left,green
107,105,train,crit,3,9,41,4,1,21,21,TRUE,,937,left,green
107,106,train,crit,3,10,32,3,2,17,17,TRUE,,923,left,green
107,107,train,crit,3,11,13,1,3,8,8,TRUE,,983,left,green
107,108,train,crit,3,12,24,2,4,14,14,TRUE,,851,left,green
107,109,train,crit,4,13,41,4,1,21,21,TRUE,,861,left,green
107,110,train,crit,4,14,32,3,2,17,17,TRUE,,1404,left,green
107,111,train,crit,4,15,13,1,3,8,8,TRUE,,983,left,green
107,112,train,crit,4,16,24,2,4,14,14,TRUE,,943,left,green
107,113,train,crit,5,17,13,1,3,8,8,TRUE,,801,left,green
107,114,train,crit,5,18,32,3,2,17,17,TRUE,,1307,left,green
107,115,train,crit,5,19,24,2,4,14,14,TRUE,,986,left,green
107,116,train,crit,5,20,41,4,1,21,21,TRUE,,1210,left,green
107,117,test,crit,1,1,14,1,4,9,8,FALSE,188.8,906,left,green
107,118,test,crit,1,2,34,3,4,19,14,FALSE,188.8,732,left,green
107,119,test,crit,1,3,22,2,2,12,16,FALSE,188.8,1316,left,green
107,120,test,crit,1,4,33,3,3,18,19,FALSE,188.8,1050,left,green
107,121,test,crit,1,5,31,3,1,16,18,FALSE,188.8,941,left,green
107,122,test,crit,1,6,44,4,4,24,22,FALSE,188.8,1324,left,green
107,123,test,crit,1,7,24,2,4,14,12,FALSE,188.8,812,left,green
107,124,test,crit,1,8,41,4,1,21,19,FALSE,188.8,767,left,green
107,125,test,crit,1,9,11,1,1,6,6,TRUE,188.8,1168,left,green
107,126,test,crit,1,10,13,1,3,8,8,TRUE,188.8,1394,left,green
107,127,test,crit,1,11,23,2,3,13,12,FALSE,188.8,1175,left,green
107,128,test,crit,1,12,12,1,2,7,8,FALSE,188.8,1129,left,green
107,129,test,crit,1,13,42,4,2,22,22,TRUE,188.8,984,left,green
107,130,test,crit,1,14,32,3,2,17,18,FALSE,188.8,1113,left,green
107,131,test,crit,1,15,43,4,3,23,23,TRUE,188.8,1177,left,green
107,132,test,crit,1,16,21,2,1,11,6,FALSE,188.8,1347,left,green
107,133,test,crit,2,17,41,4,1,21,22,FALSE,188.8,1190,left,green
107,134,test,crit,2,18,42,4,2,22,23,FALSE,188.8,970,left,green
107,135,test,crit,2,19,43,4,3,23,24,FALSE,188.8,1048,left,green
107,136,test,crit,2,20,13,1,3,8,12,FALSE,188.8,1150,left,green
107,137,test,crit,2,21,44,4,4,24,23,FALSE,188.8,912,left,green
107,138,test,crit,2,22,33,3,3,18,16,FALSE,188.8,1685,left,green
107,139,test,crit,2,23,21,2,1,11,8,FALSE,188.8,1096,left,green
107,140,test,crit,2,24,24,2,4,14,14,TRUE,188.8,1105,left,green
107,141,test,crit,2,25,31,3,1,16,17,FALSE,188.8,966,left,green
107,142,test,crit,2,26,32,3,2,17,18,FALSE,188.8,894,left,green
107,143,test,crit,2,27,11,1,1,6,6,TRUE,188.8,1016,left,green
107,144,test,crit,2,28,12,1,2,7,5,FALSE,188.8,1619,left,green
107,145,test,crit,2,29,22,2,2,12,8,FALSE,188.8,1244,left,green
107,146,test,crit,2,30,34,3,4,19,13,FALSE,188.8,1061,left,green
107,147,test,crit,2,31,14,1,4,9,14,FALSE,188.8,992,left,green
107,148,test,crit,2,32,23,2,3,13,19,FALSE,188.8,983,left,green
107,149,test,crit,3,33,31,3,1,16,19,FALSE,188.8,897,left,green
107,150,test,crit,3,34,34,3,4,19,20,FALSE,188.8,1069,left,green
107,151,test,crit,3,35,11,1,1,6,6,TRUE,188.8,1063,left,green
107,152,test,crit,3,36,14,1,4,9,8,FALSE,188.8,1915,left,green
107,153,test,crit,3,37,22,2,2,12,12,TRUE,188.8,1019,left,green
107,154,test,crit,3,38,41,4,1,21,18,FALSE,188.8,813,left,green
107,155,test,crit,3,39,33,3,3,18,21,FALSE,188.8,789,left,green
107,156,test,crit,3,40,32,3,2,17,18,FALSE,188.8,891,left,green
107,157,test,crit,3,41,13,1,3,8,12,FALSE,188.8,861,left,green
107,158,test,crit,3,42,24,2,4,14,14,TRUE,188.8,1002,left,green
107,159,test,crit,3,43,12,1,2,7,8,FALSE,188.8,1098,left,green
107,160,test,crit,3,44,43,4,3,23,22,FALSE,188.8,1124,left,green
107,161,test,crit,3,45,23,2,3,13,14,FALSE,188.8,860,left,green
107,162,test,crit,3,46,44,4,4,24,24,TRUE,188.8,1380,left,green
107,163,test,crit,3,47,21,2,1,11,9,FALSE,188.8,1225,left,green
107,164,test,crit,3,48,42,4,2,22,15,FALSE,188.8,1004,left,green
107,165,test,crit,4,49,42,4,2,22,15,FALSE,188.8,965,left,green
107,166,test,crit,4,50,21,2,1,11,5,FALSE,188.8,1198,left,green
107,167,test,crit,4,51,41,4,1,21,19,FALSE,188.8,973,left,green
107,168,test,crit,4,52,44,4,4,24,23,FALSE,188.8,1011,left,green
107,169,test,crit,4,53,31,3,1,16,17,FALSE,188.8,902,left,green
107,170,test,crit,4,54,12,1,2,7,9,FALSE,188.8,1228,left,green
107,171,test,crit,4,55,43,4,3,23,21,FALSE,188.8,975,left,green
107,172,test,crit,4,56,34,3,4,19,22,FALSE,188.8,807,left,green
107,173,test,crit,4,57,14,1,4,9,4,FALSE,188.8,1016,left,green
107,174,test,crit,4,58,23,2,3,13,13,TRUE,188.8,817,left,green
107,175,test,crit,4,59,32,3,2,17,17,TRUE,188.8,1164,left,green
107,176,test,crit,4,60,22,2,2,12,12,TRUE,188.8,1073,left,green
107,177,test,crit,4,61,13,1,3,8,10,FALSE,188.8,859,left,green
107,178,test,crit,4,62,11,1,1,6,6,TRUE,188.8,1021,left,green
107,179,test,crit,4,63,24,2,4,14,11,FALSE,188.8,849,left,green
107,180,test,crit,4,64,33,3,3,18,19,FALSE,188.8,940,left,green
107,181,test,crit,5,65,24,2,4,14,18,FALSE,188.8,944,left,green
107,182,test,crit,5,66,11,1,1,6,6,TRUE,188.8,1007,left,green
107,183,test,crit,5,67,22,2,2,12,12,TRUE,188.8,1780,left,green
107,184,test,crit,5,68,44,4,4,24,23,FALSE,188.8,1431,left,green
107,185,test,crit,5,69,33,3,3,18,19,FALSE,188.8,996,left,green
107,186,test,crit,5,70,42,4,2,22,17,FALSE,188.8,777,left,green
107,187,test,crit,5,71,32,3,2,17,14,FALSE,188.8,763,left,green
107,188,test,crit,5,72,14,1,4,9,10,FALSE,188.8,1212,left,green
107,189,test,crit,5,73,31,3,1,16,14,FALSE,188.8,1017,left,green
107,190,test,crit,5,74,23,2,3,13,17,FALSE,188.8,1030,left,green
107,191,test,crit,5,75,21,2,1,11,12,FALSE,188.8,1132,left,green
107,192,test,crit,5,76,13,1,3,8,8,TRUE,188.8,954,left,green
107,193,test,crit,5,77,41,4,1,21,18,FALSE,188.8,899,left,green
107,194,test,crit,5,78,43,4,3,23,22,FALSE,188.8,1194,left,green
107,195,test,crit,5,79,12,1,2,7,8,FALSE,188.8,1367,left,green
107,196,test,crit,5,80,34,3,4,19,18,FALSE,188.8,1124,left,green
107,197,test,crit,6,81,13,1,3,8,7,FALSE,188.8,1028,left,green
107,198,test,crit,6,82,31,3,1,16,17,FALSE,188.8,919,left,green
107,199,test,crit,6,83,23,2,3,13,-1,FALSE,188.8,-1,left,green
107,200,test,crit,6,84,22,2,2,12,12,TRUE,188.8,871,left,green
107,201,test,crit,6,85,42,4,2,22,22,TRUE,188.8,1168,left,green
107,202,test,crit,6,86,33,3,3,18,19,FALSE,188.8,1041,left,green
107,203,test,crit,6,87,43,4,3,23,23,TRUE,188.8,1184,left,green
107,204,test,crit,6,88,24,2,4,14,12,FALSE,188.8,987,left,green
107,205,test,crit,6,89,21,2,1,11,8,FALSE,188.8,1092,left,green
107,206,test,crit,6,90,41,4,1,21,20,FALSE,188.8,1092,left,green
107,207,test,crit,6,91,12,1,2,7,8,FALSE,188.8,1219,left,green
107,208,test,crit,6,92,11,1,1,6,6,TRUE,188.8,775,left,green
107,209,test,crit,6,93,44,4,4,24,24,TRUE,188.8,943,left,green
107,210,test,crit,6,94,34,3,4,19,23,FALSE,188.8,904,left,green
107,211,test,crit,6,95,32,3,2,17,18,FALSE,188.8,961,left,green
107,212,test,crit,6,96,14,1,4,9,11,FALSE,188.8,1074,left,green
107,213,test,crit,7,97,31,3,1,16,14,FALSE,188.8,896,left,green
107,214,test,crit,7,98,44,4,4,24,24,TRUE,188.8,1331,left,green
107,215,test,crit,7,99,22,2,2,12,12,TRUE,188.8,1065,left,green
107,216,test,crit,7,100,11,1,1,6,6,TRUE,188.8,944,left,green
107,217,test,crit,7,101,43,4,3,23,22,FALSE,188.8,874,left,green
107,218,test,crit,7,102,41,4,1,21,19,FALSE,188.8,995,left,green
107,219,test,crit,7,103,12,1,2,7,12,FALSE,188.8,1155,left,green
107,220,test,crit,7,104,14,1,4,9,14,FALSE,188.8,791,left,green
107,221,test,crit,7,105,13,1,3,8,16,FALSE,188.8,1358,left,green
107,222,test,crit,7,106,33,3,3,18,19,FALSE,188.8,928,left,green
107,223,test,crit,7,107,34,3,4,19,20,FALSE,188.8,940,left,green
107,224,test,crit,7,108,24,2,4,14,12,FALSE,188.8,938,left,green
107,225,test,crit,7,109,23,2,3,13,13,TRUE,188.8,1066,left,green
107,226,test,crit,7,110,21,2,1,11,10,FALSE,188.8,894,left,green
107,227,test,crit,7,111,42,4,2,22,21,FALSE,188.8,1075,left,green
107,228,test,crit,7,112,32,3,2,17,17,TRUE,188.8,873,left,green
107,229,test,crit,8,113,21,2,1,11,12,FALSE,188.8,752,left,green
107,230,test,crit,8,114,43,4,3,23,21,FALSE,188.8,992,left,green
107,231,test,crit,8,115,34,3,4,19,21,FALSE,188.8,851,left,green
107,232,test,crit,8,116,44,4,4,24,24,TRUE,188.8,995,left,green
107,233,test,crit,8,117,41,4,1,21,16,FALSE,188.8,1007,left,green
107,234,test,crit,8,118,42,4,2,22,21,FALSE,188.8,955,left,green
107,235,test,crit,8,119,11,1,1,6,5,FALSE,188.8,1256,left,green
